aX,aY,aZ,gX,gY,gZ
0.001,-0.741,1.164,-19.043,-15.381,-73.792
-0.025,-0.670,1.077,-4.089,-10.498,-64.514
-0.030,-0.789,0.923,0.427,-11.719,-59.570
0.030,-0.953,0.861,-12.390,-12.695,-48.218
0.031,-1.043,0.812,-26.550,-12.085,-34.668
0.029,-1.222,0.854,-50.354,-15.381,-20.752
0.052,-1.243,0.843,-54.321,-17.395,-3.784
0.032,-1.143,0.899,-28.809,-16.724,13.184
0.031,-0.910,0.968,-9.155,-15.991,28.381
0.038,-0.701,0.975,16.113,-13.916,42.908
0.045,-0.635,1.002,40.344,-14.160,54.993
0.091,-0.658,0.989,60.852,-13.550,68.726
0.149,-0.686,0.967,65.430,-14.587,82.520
0.150,-0.565,0.971,55.969,-15.869,94.360
0.093,-0.342,0.921,44.617,-15.991,102.905
0.051,-0.470,1.011,18.127,-16.663,108.337
0.016,-0.203,1.049,-13.428,-14.099,115.356
-0.018,0.045,1.059,-19.470,-12.207,113.159
-0.032,0.487,0.992,12.512,-11.841,105.713
-0.042,0.516,0.941,36.743,-10.315,90.942
-0.074,0.543,1.092,32.288,-11.108,78.491
-0.065,0.613,1.035,28.992,-9.644,69.336
-0.092,0.626,0.874,19.775,-11.719,59.509
-0.057,0.693,0.921,3.601,-12.085,45.898
-0.050,0.974,0.891,8.118,-7.935,29.114
-0.095,1.003,0.883,8.728,-7.141,2.380
-0.045,0.881,0.914,-14.771,-7.568,-21.057
0.024,0.817,0.938,-26.917,-6.958,-38.330
0.042,0.615,0.918,-31.067,-7.568,-56.030
0.051,0.394,0.892,-39.246,-8.118,-69.946
0.062,0.266,0.906,-44.983,-7.324,-79.285
0.022,0.204,1.023,-46.631,-6.470,-85.388
0.011,0.478,0.993,-43.030,-2.869,-89.844
0.048,0.422,0.849,-22.583,-2.869,-101.013
0.080,0.159,0.740,-27.893,-7.446,-112.732
0.038,-0.069,0.812,-40.405,-11.963,-117.249
-0.052,-0.018,0.898,-42.603,-13.367,-117.126
-0.037,-0.368,0.932,-39.185,-15.686,-119.263
-0.070,-0.976,0.866,-48.279,-20.142,-114.685
-0.012,-1.379,1.135,-64.575,-21.118,-94.299
0.042,-1.319,1.101,-62.744,-11.414,-72.144
-0.029,-1.123,0.985,-57.251,-7.324,-62.256
-0.016,-1.199,0.969,-52.063,-7.507,-48.462
0.040,-1.412,1.022,-37.903,-6.531,-22.705
0.057,-1.642,1.042,-29.785,-7.935,10.010
0.099,-1.476,1.074,-18.555,-9.644,42.969
0.093,-0.984,1.070,12.390,-5.554,63.110
0.060,-0.617,1.000,46.875,-4.028,70.801
0.090,-0.486,0.908,65.796,-8.240,81.543
0.158,-0.460,0.875,62.012,-13.123,95.276
0.126,-0.150,0.843,49.866,-17.212,105.286
-0.020,-0.072,0.944,39.124,-20.020,107.605
-0.095,0.105,1.178,-2.563,-17.456,107.849
-0.138,0.438,1.112,3.540,-13.367,104.675
-0.044,0.544,1.044,14.893,-18.799,98.877
-0.071,0.740,1.160,29.785,-18.066,85.693
-0.202,0.859,1.096,45.349,-11.536,67.444
-0.189,0.839,1.005,38.818,-9.705,48.035
-0.172,0.836,0.887,22.644,-7.874,33.264
-0.154,0.938,0.880,-6.714,-4.211,17.395
-0.170,1.049,0.882,-19.226,-0.854,-2.014
-0.186,1.063,0.830,-24.658,-0.977,-23.743
-0.178,0.930,0.840,-37.170,-3.113,-45.166
-0.138,0.795,0.867,-48.218,-4.089,-61.340
-0.135,0.667,0.903,-49.316,-3.845,-74.829
-0.149,0.504,0.918,-48.523,-2.930,-86.365
-0.177,0.464,0.897,-47.913,-0.793,-94.421
-0.182,0.327,0.834,-48.035,0.610,-103.210
-0.147,0.245,0.879,-59.631,-0.366,-109.985
-0.092,0.252,0.837,-56.641,-0.305,-114.197
-0.059,0.119,0.818,-49.438,-4.150,-119.812
-0.091,-0.156,0.865,-47.058,-8.301,-120.728
-0.116,-0.303,0.919,-40.527,-9.399,-115.540
-0.096,-0.651,0.891,-33.691,-10.315,-108.459
-0.092,-0.997,1.015,-42.480,-13.611,-95.886
-0.076,-0.986,1.103,-38.391,-9.888,-76.416
-0.013,-1.048,1.100,-28.320,-4.517,-61.523
0.048,-1.103,1.009,-18.066,-2.869,-48.218
0.110,-1.274,0.919,-9.583,-2.319,-29.358
0.140,-1.372,0.997,-5.798,-1.099,-2.380
0.144,-1.431,0.988,4.089,-1.404,27.344
0.137,-1.234,0.984,11.719,-5.981,56.824
0.125,-0.921,0.990,24.048,-7.141,77.393
0.078,-0.608,0.999,40.039,-7.690,88.623
0.045,-0.411,1.019,52.795,-8.545,97.900
0.037,-0.397,1.028,51.331,-9.033,106.995
0.049,-0.253,1.023,43.579,-10.864,116.089
0.073,0.020,1.025,57.007,-10.864,119.019
-0.013,-0.194,1.213,44.983,-9.705,116.028
-0.003,-0.143,1.280,12.878,-8.911,119.507
0.017,0.411,1.258,20.325,-4.822,120.361
-0.032,0.608,1.211,54.382,2.441,110.107
0.023,0.586,1.218,60.852,5.432,100.098
0.032,0.855,1.201,73.730,9.888,89.783
0.046,0.800,1.089,79.834,13.367,78.186
0.102,0.683,1.024,63.782,9.033,69.580
0.139,0.517,0.858,45.959,7.019,64.087
0.091,0.550,0.868,16.785,5.432,49.744
-0.027,0.609,0.835,-7.690,6.897,24.475
-0.013,0.678,0.831,-34.058,5.737,-2.136
-0.003,0.763,0.837,-49.133,4.028,-25.757
-0.001,0.711,0.888,-56.213,1.465,-48.279
0.021,0.621,0.849,-51.514,0.305,-64.087
0.029,0.306,0.845,-60.486,-3.418,-73.547
-0.021,0.208,0.959,-75.195,-8.667,-79.468
0.002,0.193,1.075,-78.979,-7.874,-86.731
0.010,0.159,1.069,-65.735,-6.226,-93.689
0.022,-0.148,1.031,-51.208,-7.080,-98.267
0.062,-0.556,1.012,-48.401,-9.216,-94.116
0.052,-0.769,1.120,-49.072,-8.545,-83.374
0.019,-0.653,1.120,-24.353,-2.197,-72.205
0.060,-0.880,0.974,-12.268,0.610,-66.650
0.049,-1.165,1.045,-7.690,-0.488,-52.979
0.086,-1.181,1.112,7.080,2.441,-30.029
0.109,-1.251,1.055,21.667,7.263,-11.292
0.115,-1.197,0.949,30.273,7.263,5.981
0.121,-1.241,0.880,38.208,4.944,24.170
0.102,-1.367,0.901,38.635,1.770,48.584
0.071,-1.192,0.916,38.574,1.648,76.477

0.031,-1.043,0.812,-26.550,-12.085,-34.668
0.029,-1.222,0.854,-50.354,-15.381,-20.752
0.052,-1.243,0.843,-54.321,-17.395,-3.784
0.032,-1.143,0.899,-28.809,-16.724,13.184
0.031,-0.910,0.968,-9.155,-15.991,28.381
0.038,-0.701,0.975,16.113,-13.916,42.908
0.045,-0.635,1.002,40.344,-14.160,54.993
0.091,-0.658,0.989,60.852,-13.550,68.726
0.149,-0.686,0.967,65.430,-14.587,82.520
0.150,-0.565,0.971,55.969,-15.869,94.360
0.093,-0.342,0.921,44.617,-15.991,102.905
0.051,-0.470,1.011,18.127,-16.663,108.337
0.016,-0.203,1.049,-13.428,-14.099,115.356
-0.018,0.045,1.059,-19.470,-12.207,113.159
-0.032,0.487,0.992,12.512,-11.841,105.713
-0.042,0.516,0.941,36.743,-10.315,90.942
-0.074,0.543,1.092,32.288,-11.108,78.491
-0.065,0.613,1.035,28.992,-9.644,69.336
-0.092,0.626,0.874,19.775,-11.719,59.509
-0.057,0.693,0.921,3.601,-12.085,45.898
-0.050,0.974,0.891,8.118,-7.935,29.114
-0.095,1.003,0.883,8.728,-7.141,2.380
-0.045,0.881,0.914,-14.771,-7.568,-21.057
0.024,0.817,0.938,-26.917,-6.958,-38.330
0.042,0.615,0.918,-31.067,-7.568,-56.030
0.051,0.394,0.892,-39.246,-8.118,-69.946
0.062,0.266,0.906,-44.983,-7.324,-79.285
0.022,0.204,1.023,-46.631,-6.470,-85.388
0.011,0.478,0.993,-43.030,-2.869,-89.844
0.048,0.422,0.849,-22.583,-2.869,-101.013
0.080,0.159,0.740,-27.893,-7.446,-112.732
0.038,-0.069,0.812,-40.405,-11.963,-117.249
-0.052,-0.018,0.898,-42.603,-13.367,-117.126
-0.037,-0.368,0.932,-39.185,-15.686,-119.263
-0.070,-0.976,0.866,-48.279,-20.142,-114.685
-0.012,-1.379,1.135,-64.575,-21.118,-94.299
0.005,-1.064,1.115,-30.762,5.371,-36.316
0.056,-1.058,1.014,-24.048,5.981,-21.240
0.110,-1.126,0.938,-26.184,5.432,0.183
0.136,-1.206,0.938,-28.931,3.784,27.954
0.089,-1.113,0.990,-29.602,3.906,56.213
0.055,-0.820,0.969,-17.212,5.981,75.745
0.030,-0.551,0.888,1.526,5.432,84.167
0.031,-0.354,0.815,22.034,1.587,90.210
0.038,-0.272,0.828,39.368,-1.892,98.694
0.035,-0.318,0.844,41.199,-5.493,110.352
0.028,-0.080,0.789,36.682,-9.155,120.789
-0.025,0.419,0.875,42.603,-9.033,120.422
-0.211,0.785,1.075,61.096,-7.019,109.131
-0.089,0.297,1.144,39.124,-8.362,101.685
-0.016,0.508,1.159,13.916,-10.620,101.440
-0.131,1.072,1.209,26.855,-5.859,85.999
-0.190,1.243,1.090,43.640,-1.221,60.120
-0.144,0.889,1.110,22.705,-3.296,41.687
-0.089,1.025,1.158,3.784,0.610,30.579
-0.093,1.233,1.004,3.174,10.315,10.559
-0.112,1.166,0.838,-4.395,7.874,-15.320
-0.045,0.986,0.728,-17.273,5.127,-35.400
0.028,0.797,0.674,-25.085,2.869,-52.734
0.000,0.695,0.699,-27.466,-0.244,-68.481
-0.035,0.534,0.685,-29.480,-3.418,-82.764
-0.066,0.370,0.799,-46.204,-7.446,-92.529
-0.064,0.419,0.937,-59.082,-8.911,-98.694
-0.061,0.445,0.982,-63.293,-7.996,-106.506
-0.078,0.354,0.989,-61.401,-9.949,-117.249
-0.088,0.103,1.006,-63.782,-11.536,-124.268
-0.050,-0.112,1.041,-63.843,-12.207,-122.009
-0.056,-0.327,1.045,-59.143,-11.414,-119.080
-0.054,-0.708,1.207,-56.458,-9.827,-114.746
-0.088,-0.821,1.334,-48.035,-4.578,-99.976
-0.025,-0.993,1.189,-30.212,3.296,-84.656
0.056,-1.156,1.105,-28.809,5.249,-72.449
0.120,-1.174,1.089,-34.729,7.019,-55.054
0.090,-0.893,1.105,-30.762,8.850,-36.072
0.019,-0.732,0.910,-1.709,10.681,-19.226
0.023,-0.996,0.987,13.550,4.456,2.991
0.062,-1.105,1.021,36.987,0.122,37.720
0.056,-1.018,1.039,57.434,-0.977,67.261
0.009,-0.764,1.010,77.637,-1.770,82.886
-0.029,-0.547,0.972,99.182,-1.343,92.346
-0.025,-0.510,0.915,111.328,-3.052,99.670
0.001,-0.430,0.905,112.061,-7.202,108.032
-0.022,-0.172,0.888,113.220,-9.277,112.793
-0.105,0.005,1.064,91.980,-12.207,112.610
-0.117,0.517,0.917,80.688,-13.184,109.741
-0.198,0.158,1.145,43.213,-16.113,102.112
-0.061,0.025,1.215,-20.691,-15.991,104.126
-0.060,0.619,1.123,-5.066,-9.827,102.234
-0.117,0.835,1.079,17.944,-7.019,85.510
-0.074,0.615,1.078,24.658,-5.371,72.632
-0.003,0.537,1.129,10.132,-4.822,63.782
-0.106,1.029,1.128,18.860,0.549,48.523
-0.144,1.102,0.943,24.231,4.639,25.696
-0.074,0.974,0.960,5.188,1.343,8.606
-0.058,1.145,0.956,3.662,3.357,-3.784
-0.067,1.135,0.862,7.751,5.127,-22.766
-0.038,0.940,0.819,1.343,1.038,-44.556
-0.022,0.769,0.812,-8.545,-1.648,-62.012
-0.027,0.648,0.845,-20.813,-2.869,-78.674
-0.024,0.583,0.807,-30.945,-4.578,-95.764
-0.079,0.450,0.886,-44.067,-6.592,-111.206
-0.053,0.138,0.923,-56.458,-8.606,-119.263
-0.015,0.043,0.975,-74.402,-13.855,-120.483
-0.034,0.106,1.050,-62.622,-12.939,-121.277
-0.046,0.043,0.911,-42.480,-11.353,-126.770
-0.032,-0.532,0.963,-35.522,-15.015,-126.343
-0.026,-0.910,1.070,-36.560,-16.174,-108.032
0.002,-1.060,1.111,-26.428,-11.902,-86.121
0.046,-1.214,1.047,-17.334,-8.362,-71.350
0.034,-1.356,0.988,-24.292,-8.118,-57.495
0.002,-1.368,0.980,-21.240,-7.935,-36.011
0.028,-1.484,0.997,-25.757,-6.042,-11.169
0.054,-1.571,1.014,-29.846,-7.751,15.625
0.021,-1.308,1.056,-10.498,-7.874,45.654
-0.002,-0.935,1.059,20.447,-6.287,69.519
-0.033,-0.533,1.009,62.805,-5.920,85.815
-0.041,-0.374,0.927,107.788,-7.019,96.680
-0.027,-0.433,0.931,122.742,-11.719,107.971
-0.006,-0.385,0.854,106.262,-15.564,122.070

0.029,-1.222,0.854,-50.354,-15.381,-20.752
0.052,-1.243,0.843,-54.321,-17.395,-3.784
0.032,-1.143,0.899,-28.809,-16.724,13.184
0.031,-0.910,0.968,-9.155,-15.991,28.381
0.038,-0.701,0.975,16.113,-13.916,42.908
0.045,-0.635,1.002,40.344,-14.160,54.993
0.091,-0.658,0.989,60.852,-13.550,68.726
0.149,-0.686,0.967,65.430,-14.587,82.520
0.150,-0.565,0.971,55.969,-15.869,94.360
0.093,-0.342,0.921,44.617,-15.991,102.905
0.051,-0.470,1.011,18.127,-16.663,108.337
0.016,-0.203,1.049,-13.428,-14.099,115.356
-0.018,0.045,1.059,-19.470,-12.207,113.159
-0.032,0.487,0.992,12.512,-11.841,105.713
-0.042,0.516,0.941,36.743,-10.315,90.942
-0.074,0.543,1.092,32.288,-11.108,78.491
-0.065,0.613,1.035,28.992,-9.644,69.336
-0.092,0.626,0.874,19.775,-11.719,59.509
-0.057,0.693,0.921,3.601,-12.085,45.898
-0.050,0.974,0.891,8.118,-7.935,29.114
-0.095,1.003,0.883,8.728,-7.141,2.380
-0.045,0.881,0.914,-14.771,-7.568,-21.057
0.024,0.817,0.938,-26.917,-6.958,-38.330
0.042,0.615,0.918,-31.067,-7.568,-56.030
0.051,0.394,0.892,-39.246,-8.118,-69.946
0.062,0.266,0.906,-44.983,-7.324,-79.285
0.022,0.204,1.023,-46.631,-6.470,-85.388
0.011,0.478,0.993,-43.030,-2.869,-89.844
0.048,0.422,0.849,-22.583,-2.869,-101.013
0.080,0.159,0.740,-27.893,-7.446,-112.732
0.038,-0.069,0.812,-40.405,-11.963,-117.249
-0.052,-0.018,0.898,-42.603,-13.367,-117.126
-0.037,-0.368,0.932,-39.185,-15.686,-119.263
-0.070,-0.976,0.866,-48.279,-20.142,-114.685
-0.012,-1.379,1.135,-64.575,-21.118,-94.299
0.005,-1.064,1.115,-30.762,5.371,-36.316
0.056,-1.058,1.014,-24.048,5.981,-21.240
0.110,-1.126,0.938,-26.184,5.432,0.183
0.136,-1.206,0.938,-28.931,3.784,27.954
0.050,-1.211,1.020,-30.396,5.798,-64.331
0.049,-1.244,0.928,-35.828,5.493,-48.218
0.062,-1.232,0.894,-35.156,6.714,-29.114
0.111,-1.242,0.830,-41.565,8.667,-9.216
0.112,-1.197,0.809,-44.922,6.653,11.719
0.073,-1.156,0.821,-32.837,1.587,33.936
0.034,-1.013,0.850,-21.545,-1.587,58.105
0.026,-0.769,0.810,-6.348,-1.892,76.477
0.008,-0.506,0.789,17.273,-2.808,88.135
0.000,-0.371,0.777,45.959,-6.165,95.703
-0.006,-0.436,0.850,61.768,-10.193,104.736
-0.047,-0.355,1.009,60.547,-14.282,116.577
-0.068,-0.002,0.906,66.833,-14.221,124.207
-0.183,0.159,0.987,54.565,-17.334,122.192
-0.219,0.121,1.248,10.559,-14.282,117.554
-0.131,0.366,1.215,6.958,-6.958,116.516
-0.158,0.667,1.126,8.850,-7.324,106.873
-0.186,0.794,1.186,18.860,-5.859,85.693
-0.174,0.963,1.185,22.705,-0.061,67.139
-0.157,1.060,1.049,30.884,4.944,48.035
-0.113,0.895,0.980,10.620,3.174,29.724
-0.078,0.992,0.971,-5.554,2.319,16.052
-0.086,1.087,0.941,-7.263,4.272,-0.549
-0.077,1.068,0.954,-12.695,2.686,-22.583
-0.062,0.964,0.921,-14.526,2.319,-43.579
0.003,0.665,0.891,-21.484,-0.305,-62.500
0.050,0.470,0.865,-25.269,-3.113,-76.416
0.041,0.296,0.856,-27.649,-4.150,-87.708
0.021,0.169,0.885,-35.828,-6.104,-95.764
-0.005,0.099,0.986,-44.128,-6.958,-99.487
0.031,0.258,0.971,-43.823,-6.287,-103.760
-0.005,0.182,0.863,-25.635,-6.775,-112.854
0.023,-0.280,0.920,-38.574,-11.963,-118.164
-0.010,-0.345,1.028,-36.560,-14.709,-110.413
-0.012,-0.512,0.930,-18.372,-11.292,-100.647
-0.042,-0.982,1.081,-29.968,-15.930,-90.210
-0.044,-1.058,1.199,-26.062,-13.794,-69.275
0.020,-1.213,1.148,-18.127,-5.676,-50.720
0.028,-1.381,1.125,-25.330,-3.845,-35.522
0.033,-1.367,1.070,-32.104,-1.648,-14.648
0.082,-1.352,0.997,-32.837,0.610,7.446
0.080,-1.234,0.996,-34.424,1.526,31.921
0.046,-0.946,1.012,-27.954,4.028,56.091
0.036,-0.635,0.967,-6.226,5.554,73.425
0.030,-0.396,0.901,20.691,5.676,84.412
0.034,-0.289,0.877,39.551,3.296,92.346
0.062,-0.301,0.845,45.044,-1.465,101.624
0.064,-0.040,0.842,41.443,-5.798,111.450
-0.032,0.008,0.879,46.448,-7.202,113.403
-0.076,-0.133,1.109,11.536,-8.606,114.258
-0.057,0.268,0.996,11.108,-3.052,118.530
-0.069,0.396,1.094,8.728,-2.014,114.502
-0.101,0.744,1.160,10.376,0.732,103.577
-0.172,1.036,1.259,33.081,7.874,84.595
-0.177,1.071,1.093,53.101,9.705,65.369
-0.170,0.939,1.072,40.833,6.348,47.913
-0.113,0.920,0.866,28.748,8.484,33.630
-0.100,1.080,0.897,11.597,7.141,15.808
-0.113,1.208,0.854,-0.610,9.583,-7.446
-0.122,1.190,0.760,-30.273,5.371,-33.752
-0.072,1.069,0.666,-52.612,-1.831,-59.570
-0.004,0.860,0.638,-65.674,-11.475,-83.191
0.008,0.647,0.664,-71.960,-19.775,-101.196
-0.036,0.449,0.802,-81.360,-28.137,-114.746
-0.076,0.379,1.035,-85.632,-32.898,-122.742
-0.079,0.488,1.096,-68.970,-31.494,-129.944
-0.074,0.375,1.078,-33.813,-29.419,-139.954
-0.031,0.058,1.102,-27.161,-29.663,-145.630
-0.002,-0.096,1.086,-13.550,-26.855,-140.076
-0.032,-0.369,0.951,2.808,-22.339,-132.080
-0.053,-0.906,1.064,-14.404,-21.606,-122.253
-0.041,-0.942,1.270,-26.794,-19.470,-97.961
-0.009,-0.965,1.112,-6.836,-9.033,-78.796
0.022,-1.229,1.070,-5.981,-6.592,-68.665
0.012,-1.123,1.105,-4.944,-3.235,-47.302
0.069,-1.057,0.836,11.963,4.395,-27.100
0.094,-1.291,0.811,11.841,0.427,-9.277
0.056,-1.345,0.852,17.517,-3.906,21.057
0.052,-1.257,0.854,28.564,-3.540,54.199
0.012,-0.980,0.852,31.860,-4.456,78.003

-0.045,0.881,0.914,-14.771,-7.568,-21.057
0.024,0.817,0.938,-26.917,-6.958,-38.330
0.042,0.615,0.918,-31.067,-7.568,-56.030
0.051,0.394,0.892,-39.246,-8.118,-69.946
0.062,0.266,0.906,-44.983,-7.324,-79.285
0.022,0.204,1.023,-46.631,-6.470,-85.388
0.011,0.478,0.993,-43.030,-2.869,-89.844
0.048,0.422,0.849,-22.583,-2.869,-101.013
0.080,0.159,0.740,-27.893,-7.446,-112.732
0.038,-0.069,0.812,-40.405,-11.963,-117.249
-0.052,-0.018,0.898,-42.603,-13.367,-117.126
-0.037,-0.368,0.932,-39.185,-15.686,-119.263
-0.070,-0.976,0.866,-48.279,-20.142,-114.685
-0.012,-1.379,1.135,-64.575,-21.118,-94.299
0.005,-1.064,1.115,-30.762,5.371,-36.316
0.056,-1.058,1.014,-24.048,5.981,-21.240
0.110,-1.126,0.938,-26.184,5.432,0.183
0.136,-1.206,0.938,-28.931,3.784,27.954
0.050,-1.211,1.020,-30.396,5.798,-64.331
0.025,-0.519,0.831,-85.327,0.427,-90.393
-0.005,-0.615,0.852,-73.975,-0.610,-78.857
-0.031,-0.624,0.890,-57.251,-1.343,-66.406
-0.028,-0.809,0.921,-46.082,-5.371,-53.162
-0.039,-0.945,0.978,-45.166,-8.667,-34.729
-0.024,-1.017,0.906,-38.147,-8.423,-15.076
0.009,-1.157,0.865,-39.185,-9.155,2.319
0.029,-1.226,0.858,-40.710,-10.681,21.057
0.032,-1.181,0.891,-38.757,-11.536,40.649
0.000,-1.005,0.927,-30.151,-10.498,58.960
-0.048,-0.769,0.959,-15.137,-9.644,70.618
-0.082,-0.495,1.000,6.165,-8.728,78.003
-0.114,-0.254,1.050,31.067,-7.996,84.778
-0.127,-0.110,1.097,50.842,-8.545,92.529
-0.144,-0.004,1.173,60.059,-9.705,102.112
-0.150,0.109,1.045,63.843,-8.545,110.901
-0.115,-0.071,1.113,48.218,-11.780,115.723
-0.138,0.432,1.162,49.683,-8.972,117.676
-0.202,0.632,1.114,67.017,-3.540,109.009
-0.271,0.538,1.252,30.212,-7.385,94.299
-0.339,0.770,1.456,-6.653,-1.526,81.421
-0.239,1.030,1.181,8.240,7.324,63.843
-0.246,1.060,1.049,8.667,3.540,36.255
-0.194,1.037,0.978,16.174,8.423,17.578
-0.173,0.935,0.915,19.775,11.963,4.150
-0.179,0.855,0.891,13.794,10.498,-11.353
-0.169,0.837,0.904,9.155,9.033,-28.931
-0.127,0.798,0.868,13.306,9.094,-46.265
-0.090,0.595,0.878,9.399,7.263,-61.890
-0.078,0.445,0.869,6.287,6.531,-72.632
-0.053,0.208,0.877,2.441,4.272,-82.397
-0.025,0.081,0.972,-7.263,2.747,-88.684
-0.059,0.265,0.959,-0.732,5.432,-93.201
-0.079,0.248,0.826,13.062,6.653,-101.868
0.017,-0.235,0.825,-5.615,1.282,-106.445
0.050,-0.462,0.878,-23.804,-4.944,-98.694
0.003,-0.447,0.896,-25.879,-3.540,-89.600
-0.033,-0.655,0.937,-27.039,-1.953,-83.679
-0.038,-0.837,0.933,-32.532,-3.601,-73.181
-0.011,-1.067,0.952,-29.785,-4.578,-57.190
0.031,-1.307,0.960,-41.138,-3.601,-38.330
0.025,-1.156,0.937,-49.194,-3.418,-17.151
0.012,-0.982,0.817,-44.434,-1.709,-2.563
0.064,-0.971,0.775,-43.823,-3.357,13.306
0.063,-1.010,0.799,-39.429,-5.005,35.767
0.028,-0.906,0.841,-33.142,-6.714,58.472
-0.006,-0.636,0.865,-22.278,-8.057,73.242
-0.039,-0.368,0.911,-5.310,-8.606,82.092
-0.086,-0.210,0.987,11.597,-9.277,89.111
-0.141,-0.100,1.060,22.278,-9.338,97.107
-0.130,0.020,1.019,26.855,-9.094,104.309
-0.123,0.185,1.137,29.907,-8.789,106.384
-0.138,0.518,1.018,54.504,-3.906,104.797
-0.159,0.486,0.954,44.067,-5.188,97.229
-0.280,0.377,1.428,-12.451,-5.737,86.365
-0.252,0.897,1.335,-16.846,6.165,74.097
-0.281,1.136,1.086,-3.784,8.972,48.035
-0.269,1.203,1.092,-1.343,6.470,22.583
-0.196,1.186,1.037,12.085,12.817,6.470
-0.127,1.098,0.976,15.320,14.221,-9.155
-0.144,1.028,0.945,12.878,11.719,-26.306
-0.095,0.890,0.870,3.845,8.911,-42.908
-0.031,0.630,0.838,-4.822,4.395,-56.641
-0.064,0.489,0.897,-10.864,0.427,-67.017
-0.144,0.394,0.912,-8.057,-0.183,-77.881
-0.151,0.170,0.934,-9.338,-1.465,-87.830
-0.093,0.070,1.030,-18.860,-1.526,-93.506
-0.102,0.180,0.919,-11.719,0.488,-99.426
-0.048,-0.045,0.846,-11.353,0.366,-109.863
-0.019,-0.179,0.922,-34.790,-3.540,-114.746
-0.024,0.046,0.872,-32.837,-3.296,-116.028
0.048,-0.310,0.726,-16.602,-3.052,-118.835
-0.003,-0.732,0.939,-36.926,-10.071,-108.826
0.053,-0.884,0.952,-27.161,-10.803,-87.769
0.063,-1.100,1.069,-31.006,-7.507,-71.655
0.062,-1.117,1.005,-39.490,-8.057,-55.603
0.026,-1.115,1.031,-46.753,-11.536,-38.513
0.013,-1.182,0.992,-49.744,-13.367,-18.066
0.007,-1.191,0.954,-49.072,-13.672,6.226
-0.012,-1.166,0.990,-39.490,-10.742,31.067
-0.033,-0.980,0.988,-27.466,-5.310,54.871
-0.047,-0.661,0.965,-11.414,-2.258,71.472
-0.071,-0.447,0.931,4.883,-2.502,79.834
-0.073,-0.332,0.905,14.832,-3.723,86.975
-0.053,-0.279,0.944,14.648,-5.127,95.520
-0.086,-0.162,1.086,2.563,-6.836,104.980
-0.108,0.081,0.943,10.376,-5.859,112.488
-0.090,-0.305,0.953,-8.789,-9.216,117.126
-0.038,0.294,0.830,-21.606,-7.935,126.099
-0.194,0.528,0.876,5.798,-2.197,116.394
-0.203,0.093,1.339,-69.580,-3.906,107.239
-0.286,1.100,1.449,-74.097,4.761,106.628
-0.348,1.377,1.100,-26.001,14.709,80.200
-0.251,1.081,1.014,-31.555,9.827,62.622
-0.194,0.945,0.910,-28.076,15.930,55.908
-0.230,1.005,0.840,-34.851,14.343,40.710
-0.259,1.153,0.745,-36.865,13.428,18.494
-0.244,1.115,0.633,-44.495,9.399,-5.249
-0.235,1.162,0.655,-46.448,1.953,-26.123
-0.219,1.217,0.682,-34.058,-2.747,-48.950

0.042,0.615,0.918,-31.067,-7.568,-56.030
0.051,0.394,0.892,-39.246,-8.118,-69.946
0.062,0.266,0.906,-44.983,-7.324,-79.285
0.022,0.204,1.023,-46.631,-6.470,-85.388
0.011,0.478,0.993,-43.030,-2.869,-89.844
0.048,0.422,0.849,-22.583,-2.869,-101.013
0.080,0.159,0.740,-27.893,-7.446,-112.732
0.038,-0.069,0.812,-40.405,-11.963,-117.249
-0.052,-0.018,0.898,-42.603,-13.367,-117.126
-0.037,-0.368,0.932,-39.185,-15.686,-119.263
-0.070,-0.976,0.866,-48.279,-20.142,-114.685
-0.012,-1.379,1.135,-64.575,-21.118,-94.299
0.005,-1.064,1.115,-30.762,5.371,-36.316
0.056,-1.058,1.014,-24.048,5.981,-21.240
0.110,-1.126,0.938,-26.184,5.432,0.183
0.136,-1.206,0.938,-28.931,3.784,27.954
0.050,-1.211,1.020,-30.396,5.798,-64.331
0.025,-0.519,0.831,-85.327,0.427,-90.393
-0.005,-0.615,0.852,-73.975,-0.610,-78.857
-0.031,-0.624,0.890,-57.251,-1.343,-66.406
-0.028,-0.809,0.921,-46.082,-5.371,-53.162
-0.039,-0.945,0.978,-45.166,-8.667,-34.729
-0.024,-1.017,0.906,-38.147,-8.423,-15.076
0.009,-1.157,0.865,-39.185,-9.155,2.319
0.029,-1.226,0.858,-40.710,-10.681,21.057
0.032,-1.181,0.891,-38.757,-11.536,40.649
0.000,-1.005,0.927,-30.151,-10.498,58.960
-0.048,-0.769,0.959,-15.137,-9.644,70.618
-0.082,-0.495,1.000,6.165,-8.728,78.003
-0.114,-0.254,1.050,31.067,-7.996,84.778
-0.127,-0.110,1.097,50.842,-8.545,92.529
-0.144,-0.004,1.173,60.059,-9.705,102.112
-0.150,0.109,1.045,63.843,-8.545,110.901
-0.115,-0.071,1.113,48.218,-11.780,115.723
-0.138,0.432,1.162,49.683,-8.972,117.676
-0.202,0.632,1.114,67.017,-3.540,109.009
-0.271,0.538,1.252,30.212,-7.385,94.299
-0.339,0.770,1.456,-6.653,-1.526,81.421
-0.216,0.338,1.315,1.038,-10.864,103.210
-0.276,0.752,1.263,-17.700,-11.658,86.121
-0.316,1.007,1.376,1.099,-8.118,66.650
-0.236,1.053,1.141,12.329,-6.042,45.471
-0.236,1.216,1.110,35.645,-4.883,27.405
-0.205,0.996,0.984,36.560,-1.953,8.057
-0.165,0.744,1.075,5.432,-2.869,-5.859
-0.201,0.942,1.079,0.488,2.380,-16.235
-0.197,0.918,1.014,5.188,6.653,-34.363
-0.135,0.613,0.917,3.174,5.737,-51.880
-0.083,0.402,0.885,-1.282,4.761,-62.622
-0.046,0.298,0.865,-0.305,5.493,-71.472
-0.007,0.164,0.795,-0.549,5.432,-79.529
-0.028,0.083,0.899,-13.245,3.662,-86.182
-0.062,0.380,0.929,-8.789,5.249,-87.646
0.000,0.142,0.699,4.456,6.409,-93.079
0.045,-0.125,0.793,-16.846,-0.244,-98.633
0.047,-0.050,0.863,-24.719,-2.869,-98.694
-0.039,0.160,0.823,-10.498,0.061,-101.379
-0.067,-0.074,0.804,-7.935,-1.465,-104.370
-0.069,-0.432,0.979,-27.893,-7.874,-96.924
-0.058,-0.635,1.069,-29.968,-8.667,-80.566
-0.035,-0.767,1.132,-22.766,-4.211,-62.988
-0.034,-0.856,1.136,-19.348,2.075,-49.866
-0.044,-0.857,1.011,-8.484,8.484,-37.781
-0.009,-0.907,0.827,-2.930,10.620,-23.071
0.014,-0.915,0.782,-5.493,7.629,-6.897
0.017,-0.851,0.753,0.000,2.625,12.634
0.015,-0.846,0.789,1.526,-1.953,33.936
-0.004,-0.696,0.849,3.235,-3.784,54.077
-0.035,-0.492,0.892,13.489,-4.639,67.688
-0.049,-0.370,0.934,21.729,-7.019,74.646
-0.045,-0.339,0.974,26.062,-7.996,81.604
-0.066,-0.275,1.063,21.057,-8.179,88.867
-0.096,-0.098,1.068,19.348,-7.690,95.825
-0.090,-0.005,0.954,24.536,-8.667,99.670
-0.055,0.269,1.050,12.024,-8.057,99.426
-0.195,0.735,1.076,49.377,-2.563,90.881
-0.220,0.656,1.291,40.710,0.366,77.637
-0.133,0.365,1.198,25.940,-1.709,70.862
-0.113,0.485,1.147,4.822,-2.808,64.636
-0.160,0.745,1.221,7.019,0.183,46.265
-0.135,0.831,1.005,12.024,3.845,25.269
-0.133,0.828,1.017,7.935,3.174,7.629
-0.130,0.843,1.015,8.423,4.333,-7.935
-0.127,0.787,1.029,8.057,4.456,-21.912
-0.150,0.677,1.007,1.709,4.150,-33.936
-0.147,0.523,1.002,-6.897,3.967,-44.678
-0.133,0.418,0.996,-10.071,5.798,-53.711
-0.139,0.326,0.974,-6.226,8.667,-63.660
-0.145,0.222,0.935,-2.991,10.559,-73.425
-0.107,-0.028,0.954,-12.939,11.230,-78.552
-0.082,-0.000,1.060,-24.963,12.085,-79.773
-0.074,0.235,1.049,-11.230,16.357,-86.060
-0.054,0.213,0.901,1.038,18.372,-97.168
0.013,-0.080,0.885,-8.545,15.259,-101.868
0.073,-0.324,0.841,-17.273,12.207,-95.093
0.074,-0.383,0.899,-19.165,6.897,-83.130
0.077,-0.567,0.849,-14.526,4.883,-73.120
0.109,-0.845,0.903,-29.053,0.671,-62.256
0.117,-0.938,0.823,-33.325,-1.343,-45.288
0.080,-0.972,0.848,-33.081,-2.808,-26.123
0.073,-0.923,0.846,-30.273,-3.296,-8.118
0.066,-0.922,0.841,-22.705,-5.310,6.775
0.054,-0.998,0.904,-22.400,-8.484,24.536
0.065,-0.919,0.921,-18.433,-8.911,45.654
0.034,-0.735,0.934,-6.958,-9.277,62.988
-0.015,-0.512,0.928,9.460,-9.521,74.158
-0.025,-0.443,0.908,20.630,-9.033,82.581
-0.031,-0.413,0.941,15.564,-9.888,90.027
-0.092,-0.187,1.064,12.268,-9.216,94.849
-0.114,-0.003,0.957,25.635,-7.141,96.741
-0.101,-0.304,0.886,12.817,-10.803,100.769
-0.044,0.094,0.868,-5.798,-13.245,107.117
-0.207,0.648,1.028,29.053,-8.179,96.924
-0.229,0.634,1.080,38.574,-4.517,80.139
-0.150,0.302,1.136,19.470,-6.836,74.890
-0.165,0.568,1.236,-0.122,-6.775,68.542
-0.214,1.040,1.165,25.024,-1.099,49.805
-0.218,1.084,1.022,40.649,1.648,27.405
-0.160,0.857,1.000,32.898,-0.854,10.925

0.048,0.422,0.849,-22.583,-2.869,-101.013
0.080,0.159,0.740,-27.893,-7.446,-112.732
0.038,-0.069,0.812,-40.405,-11.963,-117.249
-0.052,-0.018,0.898,-42.603,-13.367,-117.126
-0.037,-0.368,0.932,-39.185,-15.686,-119.263
-0.070,-0.976,0.866,-48.279,-20.142,-114.685
-0.012,-1.379,1.135,-64.575,-21.118,-94.299
0.005,-1.064,1.115,-30.762,5.371,-36.316
0.056,-1.058,1.014,-24.048,5.981,-21.240
0.110,-1.126,0.938,-26.184,5.432,0.183
0.136,-1.206,0.938,-28.931,3.784,27.954
0.050,-1.211,1.020,-30.396,5.798,-64.331
0.025,-0.519,0.831,-85.327,0.427,-90.393
-0.005,-0.615,0.852,-73.975,-0.610,-78.857
-0.031,-0.624,0.890,-57.251,-1.343,-66.406
-0.028,-0.809,0.921,-46.082,-5.371,-53.162
-0.039,-0.945,0.978,-45.166,-8.667,-34.729
-0.024,-1.017,0.906,-38.147,-8.423,-15.076
0.009,-1.157,0.865,-39.185,-9.155,2.319
0.029,-1.226,0.858,-40.710,-10.681,21.057
0.032,-1.181,0.891,-38.757,-11.536,40.649
0.000,-1.005,0.927,-30.151,-10.498,58.960
-0.048,-0.769,0.959,-15.137,-9.644,70.618
-0.082,-0.495,1.000,6.165,-8.728,78.003
-0.114,-0.254,1.050,31.067,-7.996,84.778
-0.127,-0.110,1.097,50.842,-8.545,92.529
-0.144,-0.004,1.173,60.059,-9.705,102.112
-0.150,0.109,1.045,63.843,-8.545,110.901
-0.115,-0.071,1.113,48.218,-11.780,115.723
-0.138,0.432,1.162,49.683,-8.972,117.676
-0.202,0.632,1.114,67.017,-3.540,109.009
-0.271,0.538,1.252,30.212,-7.385,94.299
-0.339,0.770,1.456,-6.653,-1.526,81.421
-0.216,0.338,1.315,1.038,-10.864,103.210
-0.276,0.752,1.263,-17.700,-11.658,86.121
-0.192,0.416,1.093,49.866,-9.766,92.163
-0.196,0.263,1.307,12.817,-5.798,84.290
-0.129,0.470,1.145,1.099,-4.211,78.979
-0.214,0.669,1.315,0.732,-2.930,61.035
-0.195,0.876,1.216,6.775,5.066,42.603
-0.151,0.836,1.051,14.465,6.897,28.870
-0.135,0.785,1.084,-1.587,5.859,14.771
-0.088,0.850,0.997,7.568,11.108,1.404
-0.064,0.735,0.921,10.925,10.986,-12.085
-0.063,0.668,0.903,9.216,8.667,-24.841
-0.064,0.631,0.877,13.306,9.216,-36.438
-0.059,0.498,0.879,12.085,9.277,-46.021
-0.062,0.398,0.875,11.169,9.216,-53.406
-0.066,0.304,0.885,11.292,8.545,-61.096
-0.071,0.191,0.903,11.047,8.667,-68.542
-0.065,0.051,0.924,13.611,9.583,-75.317
-0.023,0.003,0.894,14.648,10.132,-80.383
-0.002,-0.074,0.893,12.268,10.010,-87.280
0.021,-0.115,0.997,3.540,10.437,-93.872
0.007,-0.057,1.020,3.418,12.573,-97.595
0.054,-0.141,0.973,12.085,12.695,-101.013
0.094,-0.288,0.933,11.414,10.559,-100.037
0.121,-0.443,0.840,7.324,7.568,-91.736
0.127,-0.667,0.862,-2.319,2.258,-79.590
0.149,-0.632,0.756,1.343,0.183,-62.378
0.123,-0.835,0.696,8.240,-1.221,-47.363
0.118,-1.117,0.687,5.493,-5.859,-26.672
0.104,-1.441,0.714,5.798,-7.568,-2.625
0.075,-1.718,0.804,-12.512,-10.132,22.949
0.036,-1.458,0.877,-23.682,-8.545,48.462
-0.047,-1.014,0.919,-9.644,-4.944,63.904
-0.093,-0.698,0.993,8.362,-3.906,74.341
-0.124,-0.506,1.014,35.339,-2.930,85.571
-0.164,-0.349,1.146,60.791,-2.380,96.313
-0.153,-0.025,1.082,107.971,-0.427,104.065
-0.159,-0.035,1.067,154.419,-2.380,107.849
-0.106,-0.193,1.002,166.870,-5.554,115.906
-0.011,-0.234,0.931,156.921,-6.592,124.756
-0.009,0.181,0.922,145.935,-5.859,123.718
-0.116,0.021,0.993,114.075,-5.005,108.337
-0.099,-0.151,1.285,30.640,-7.568,98.877
-0.102,0.401,1.211,15.137,-5.371,92.957
-0.140,0.604,1.212,35.828,-4.761,74.402
-0.099,0.425,1.230,27.466,-5.798,58.472
-0.026,0.490,1.287,21.179,-2.563,51.514
-0.047,0.511,1.179,29.480,3.052,41.626
-0.016,0.379,1.080,23.254,1.831,32.532
0.070,0.318,0.957,18.677,0.000,26.306
0.032,0.333,0.942,12.451,-1.038,15.503
-0.036,0.464,0.939,2.563,1.770,-2.319
-0.042,0.557,0.880,2.808,4.700,-23.315
0.003,0.484,0.828,1.221,5.127,-41.138
0.034,0.318,0.825,-1.648,3.845,-53.223
0.026,0.123,0.826,-5.005,2.502,-62.134
-0.005,0.021,0.879,-11.230,2.014,-71.289
-0.014,-0.042,0.920,-15.808,3.906,-82.214
-0.004,-0.109,0.964,-19.470,6.165,-94.055
0.040,-0.234,0.999,-17.944,7.507,-103.210
0.081,-0.428,0.927,-7.507,5.615,-107.056
0.133,-0.530,0.839,1.526,3.967,-105.530
0.209,-0.743,0.778,-2.869,2.014,-99.426
0.245,-0.832,0.743,-23.621,-3.235,-88.745
0.161,-0.650,0.547,-11.902,-7.019,-74.707
0.088,-1.011,0.546,2.380,-15.686,-59.875
0.049,-1.570,0.674,3.052,-19.958,-32.715
0.006,-1.737,0.877,-12.695,-17.517,-2.380
-0.017,-1.753,0.963,-17.700,-15.747,24.231
-0.030,-1.649,0.971,-23.499,-13.916,47.852
-0.075,-1.308,0.912,-17.273,-11.475,68.420
-0.105,-0.913,0.896,5.859,-9.094,84.229
-0.156,-0.666,1.131,45.227,-0.854,96.252
-0.116,-0.425,1.106,86.060,7.019,104.797
-0.114,-0.239,1.032,124.573,0.732,107.971
-0.086,-0.202,1.202,119.263,-2.625,109.619
-0.011,-0.384,1.026,84.412,-0.366,111.694
-0.031,-0.218,1.258,23.804,-8.179,114.136
-0.053,0.214,1.177,23.315,-1.892,109.558
-0.029,0.244,1.174,15.625,1.648,98.755
0.055,0.166,1.016,1.404,-0.366,90.210
0.053,0.086,0.943,-5.615,-3.967,82.214
0.048,0.150,0.984,-12.207,-6.165,74.707
0.016,0.140,0.905,-16.907,-8.118,68.359
-0.030,0.199,0.974,-30.151,-12.268,58.838
-0.075,0.408,0.946,-31.250,-10.681,46.326

0.130,-0.755,1.011,-28.015,0.732,-51.514
0.178,-0.671,0.895,-26.611,4.883,-37.476
0.197,-0.758,0.896,-35.706,2.869,-28.687
0.186,-0.869,0.764,-25.818,-0.183,-12.756
0.214,-1.031,0.724,-17.029,-0.427,11.108
0.237,-1.098,0.754,-17.944,-3.113,34.668
0.212,-0.985,0.763,-11.536,-5.981,53.223
0.168,-0.838,0.785,-3.784,-6.287,67.200
0.142,-0.724,0.845,2.563,-6.836,78.186
0.114,-0.614,0.925,9.888,-6.897,87.585
0.067,-0.401,1.089,16.846,-6.165,94.360
0.036,-0.065,1.135,38.452,-3.235,99.731
0.033,0.139,1.140,63.477,-0.305,100.159
-0.026,0.340,1.168,77.637,1.099,95.093
-0.067,0.283,1.281,67.200,1.892,85.388
0.013,0.158,1.175,33.691,2.625,74.219
0.063,0.268,1.191,8.362,-0.244,63.965
-0.035,0.599,1.076,19.592,4.028,48.462
-0.011,0.366,0.958,8.240,3.174,29.724
0.057,0.374,0.959,-10.193,2.075,18.921
0.048,0.577,0.940,-10.010,6.104,6.653
0.033,0.544,0.892,-11.475,5.188,-9.705
0.058,0.383,0.892,-17.700,2.563,-24.536
0.072,0.302,0.889,-20.203,2.075,-35.706
0.079,0.212,0.893,-23.743,1.526,-45.898
0.073,0.179,0.914,-26.306,0.977,-54.932
0.061,0.182,0.870,-21.484,-0.122,-63.721
0.069,0.014,0.799,-20.447,-2.869,-72.144
0.073,-0.137,0.844,-28.748,-6.592,-76.660
0.057,-0.142,0.918,-32.166,-7.629,-78.491
0.052,-0.076,0.909,-29.358,-7.629,-82.397
0.022,-0.100,0.991,-27.100,-8.057,-89.111
-0.009,-0.259,0.752,-23.682,-8.667,-91.980
0.132,-0.510,0.953,-37.659,-15.076,-89.233
0.130,-0.743,1.010,-39.124,-15.198,-83.557
0.092,-0.699,1.099,-26.611,-9.888,-68.054
0.144,-0.809,0.929,-17.395,-5.554,-57.129
0.171,-1.063,0.989,-28.381,-7.629,-47.363
0.167,-1.125,0.915,-33.142,-8.362,-27.527
0.212,-1.118,0.967,-37.842,-6.165,-6.287
0.205,-1.082,0.947,-29.053,-5.859,12.695
0.161,-1.014,0.911,-16.785,-6.226,34.912
0.154,-0.868,0.908,-6.653,-6.653,55.054
0.161,-0.697,0.902,5.615,-4.944,68.848
0.153,-0.587,0.888,17.456,-4.761,76.538
0.160,-0.516,0.872,22.827,-6.775,82.825
0.162,-0.469,0.917,19.226,-9.033,88.806
0.106,-0.282,1.024,12.939,-9.644,93.628
0.055,-0.121,0.994,23.132,-9.827,97.107
0.061,-0.213,0.947,22.034,-13.733,100.708
0.074,-0.034,0.966,22.339,-15.686,104.065
0.004,0.204,1.006,37.964,-13.000,100.830
-0.043,0.581,1.195,35.339,-6.653,90.698
-0.168,0.868,1.270,35.339,0.000,70.923
-0.173,0.641,1.210,33.569,0.061,47.913
-0.029,0.275,1.157,9.583,-6.226,36.072
-0.007,0.587,1.052,7.751,-4.333,31.799
-0.102,0.705,0.983,3.357,-0.671,15.076
-0.097,0.669,0.959,-5.920,-0.793,-1.892
-0.062,0.614,0.906,-9.705,0.244,-16.113
-0.046,0.516,0.850,-15.015,-1.343,-31.128
-0.015,0.395,0.837,-19.897,-3.784,-44.617
0.008,0.323,0.849,-20.874,-5.310,-56.213
-0.014,0.297,0.900,-17.029,-5.188,-65.857
-0.017,0.242,0.859,-10.071,-5.249,-75.195
0.014,0.155,0.861,-9.888,-7.568,-84.717
0.057,0.036,0.824,-12.573,-9.155,-91.492
0.055,-0.005,0.905,-17.334,-12.085,-95.947
0.037,0.028,0.913,-8.484,-12.024,-97.717
0.085,-0.186,0.868,-12.512,-13.123,-100.037
0.017,-0.431,0.879,-22.400,-18.005,-97.534
0.095,-0.612,0.971,-25.574,-21.362,-86.243
0.076,-0.870,1.154,-22.461,-17.334,-77.698
0.062,-0.781,1.194,-7.202,-10.193,-60.425
0.123,-0.859,1.049,-1.404,-3.418,-49.744
0.155,-1.003,0.983,-9.277,-4.272,-39.795
0.146,-1.040,0.938,-9.521,-3.418,-18.799
0.182,-1.156,0.866,-9.216,-1.343,5.432
0.215,-1.194,0.814,-16.541,-0.488,28.992
0.217,-0.996,0.795,-15.137,-1.465,48.462
0.169,-0.735,0.788,-7.141,-2.014,61.829
0.128,-0.541,0.794,3.601,-2.930,69.336
0.108,-0.438,0.812,12.146,-3.357,74.463
0.064,-0.297,0.936,15.503,-5.249,79.102
0.016,-0.054,1.042,25.757,-4.822,83.801
0.026,-0.066,0.955,41.443,-5.432,87.219
0.065,-0.084,1.027,34.912,-8.850,92.285
-0.015,0.157,1.039,32.776,-4.456,92.041
-0.047,-0.018,1.200,9.827,-1.648,84.595
0.017,0.156,1.229,-14.832,1.953,80.933
-0.009,0.540,1.103,-0.244,7.385,69.763
-0.001,0.417,1.116,5.432,8.667,54.016
0.052,0.368,1.072,-1.953,9.033,45.593
0.021,0.473,0.991,-2.136,8.728,38.513
0.039,0.457,0.915,-2.075,6.409,27.344
0.065,0.364,0.865,-1.160,5.310,18.311
0.062,0.432,0.826,1.648,4.456,7.690
0.055,0.422,0.808,7.690,2.563,-7.446
0.037,0.408,0.820,8.606,-1.221,-22.339
0.026,0.408,0.832,11.414,-4.272,-35.400
0.013,0.316,0.863,13.916,-6.714,-47.546
-0.013,0.235,0.935,15.747,-7.324,-57.678
-0.044,0.205,0.951,19.714,-5.554,-66.101
-0.031,0.147,0.969,19.470,-5.371,-75.867
-0.011,0.150,0.965,18.860,-4.456,-84.961
0.018,0.023,0.958,16.724,-4.517,-93.872
0.034,-0.017,1.033,11.230,-5.493,-100.281
0.050,-0.001,0.909,17.700,-4.578,-105.957
0.098,-0.292,0.934,12.695,-7.629,-111.450
0.166,-0.536,0.869,3.174,-9.155,-108.215
0.202,-0.670,0.829,0.366,-8.362,-100.159
0.204,-0.976,0.755,-9.583,-8.911,-90.759
0.167,-1.025,0.923,-30.212,-10.437,-75.439
0.144,-0.792,1.000,-21.667,-4.517,-57.556
0.112,-0.839,0.944,-12.756,-2.319,-47.485
0.061,-1.037,0.910,-2.258,-5.859,-31.311
0.066,-1.263,0.763,3.296,-5.432,-4.150
0.164,-1.401,0.862,-7.263,-4.517,24.048
0.154,-1.251,0.833,-9.521,-0.366,47.852

0.197,-0.758,0.896,-35.706,2.869,-28.687
0.186,-0.869,0.764,-25.818,-0.183,-12.756
0.214,-1.031,0.724,-17.029,-0.427,11.108
0.237,-1.098,0.754,-17.944,-3.113,34.668
0.212,-0.985,0.763,-11.536,-5.981,53.223
0.168,-0.838,0.785,-3.784,-6.287,67.200
0.142,-0.724,0.845,2.563,-6.836,78.186
0.114,-0.614,0.925,9.888,-6.897,87.585
0.067,-0.401,1.089,16.846,-6.165,94.360
0.036,-0.065,1.135,38.452,-3.235,99.731
0.033,0.139,1.140,63.477,-0.305,100.159
-0.026,0.340,1.168,77.637,1.099,95.093
-0.067,0.283,1.281,67.200,1.892,85.388
0.013,0.158,1.175,33.691,2.625,74.219
0.063,0.268,1.191,8.362,-0.244,63.965
-0.035,0.599,1.076,19.592,4.028,48.462
-0.011,0.366,0.958,8.240,3.174,29.724
0.057,0.374,0.959,-10.193,2.075,18.921
0.048,0.577,0.940,-10.010,6.104,6.653
0.033,0.544,0.892,-11.475,5.188,-9.705
0.058,0.383,0.892,-17.700,2.563,-24.536
0.072,0.302,0.889,-20.203,2.075,-35.706
0.079,0.212,0.893,-23.743,1.526,-45.898
0.073,0.179,0.914,-26.306,0.977,-54.932
0.061,0.182,0.870,-21.484,-0.122,-63.721
0.069,0.014,0.799,-20.447,-2.869,-72.144
0.073,-0.137,0.844,-28.748,-6.592,-76.660
0.057,-0.142,0.918,-32.166,-7.629,-78.491
0.052,-0.076,0.909,-29.358,-7.629,-82.397
0.022,-0.100,0.991,-27.100,-8.057,-89.111
-0.009,-0.259,0.752,-23.682,-8.667,-91.980
0.132,-0.510,0.953,-37.659,-15.076,-89.233
0.130,-0.743,1.010,-39.124,-15.198,-83.557
0.092,-0.699,1.099,-26.611,-9.888,-68.054
0.144,-0.809,0.929,-17.395,-5.554,-57.129
0.171,-1.063,0.989,-28.381,-7.629,-47.363
0.167,-1.125,0.915,-33.142,-8.362,-27.527
0.212,-1.118,0.967,-37.842,-6.165,-6.287
0.166,-0.759,0.959,-5.798,-6.409,-81.299
0.197,-1.075,0.988,-16.418,-4.517,-70.923
0.126,-1.223,0.923,-31.921,0.916,-51.941
0.182,-0.938,1.114,-44.495,3.967,-34.668
0.194,-0.852,0.858,-26.733,8.484,-33.752
0.185,-0.818,0.835,-21.729,6.104,-27.954
0.160,-0.824,0.809,-14.893,5.981,-13.977
0.173,-0.923,0.799,-3.784,1.526,4.700
0.169,-1.022,0.879,-5.310,-5.615,28.137
0.140,-0.917,0.889,1.526,-5.798,48.584
0.100,-0.729,0.872,16.968,-2.686,59.814
0.084,-0.593,0.831,34.119,-1.648,63.843
0.095,-0.567,0.801,48.401,-2.869,66.467
0.090,-0.538,0.891,52.307,-5.554,71.289
0.058,-0.325,0.951,58.594,-6.409,76.294
0.044,-0.236,0.873,68.420,-8.057,77.759
0.104,-0.135,0.848,60.547,-10.742,79.529
-0.021,0.165,0.945,61.279,-9.644,76.843
-0.090,0.279,1.317,40.039,-3.357,67.444
-0.025,0.348,1.165,28.015,1.892,59.998
-0.057,0.382,1.270,16.968,-3.296,49.927
-0.028,0.453,1.147,23.682,-0.671,39.185
0.030,0.291,1.024,25.696,0.000,28.687
0.015,0.247,1.052,7.690,-2.075,21.057
0.010,0.384,0.959,8.972,-0.061,12.268
0.006,0.431,0.909,11.841,0.549,-2.502
0.002,0.370,0.916,6.470,0.793,-17.334
-0.005,0.406,0.875,7.141,2.747,-30.273
0.004,0.364,0.846,11.902,4.333,-42.847
0.014,0.292,0.894,12.390,4.944,-53.101
-0.013,0.304,0.925,16.907,6.348,-60.608
-0.016,0.273,0.868,23.865,6.226,-68.298
0.032,0.042,0.770,20.264,3.784,-75.073
0.046,-0.061,0.887,1.160,1.160,-79.102
0.044,-0.019,0.813,3.174,2.563,-84.167
0.049,-0.198,0.845,-4.944,1.343,-93.079
0.082,-0.313,0.854,-17.151,1.709,-96.191
0.138,-0.664,0.743,-25.024,0.000,-95.703
0.149,-0.973,0.912,-46.021,-4.150,-88.013
0.150,-1.028,0.874,-53.955,1.343,-73.608
0.176,-0.994,0.761,-58.228,3.845,-64.392
0.196,-1.071,0.875,-58.594,3.845,-55.298
0.197,-1.198,0.808,-44.983,2.686,-37.903
0.178,-1.244,0.820,-28.687,-1.343,-15.564
0.194,-1.372,0.816,-20.264,-4.333,4.333
0.191,-1.387,0.846,-19.226,-7.751,28.015
0.160,-1.160,0.878,-10.254,-8.362,52.612
0.116,-0.912,0.925,4.700,-7.202,67.932
0.085,-0.728,0.921,23.804,-6.531,76.050
0.096,-0.643,0.871,41.199,-7.202,81.848
0.117,-0.689,0.881,39.795,-11.292,87.280
0.085,-0.467,1.028,32.288,-13.428,93.079
0.010,-0.329,0.971,39.307,-12.634,95.825
0.090,-0.380,0.935,18.677,-15.747,100.403
0.035,0.062,1.010,18.005,-15.259,100.830
-0.159,0.318,1.309,28.198,-5.554,88.562
-0.019,0.040,1.281,-1.221,-0.854,78.186
0.047,0.343,1.368,-12.695,-4.822,74.097
-0.074,0.777,1.153,40.710,3.845,58.777
-0.030,0.425,1.081,36.804,3.418,36.804
0.026,0.361,1.022,17.578,1.404,29.907
0.022,0.511,0.891,19.104,5.127,22.278
0.022,0.438,0.859,6.958,4.089,6.226
-0.012,0.488,0.905,0.671,4.639,-7.935
-0.043,0.526,0.881,4.028,6.897,-23.804
0.003,0.387,0.882,-3.723,5.432,-39.795
0.026,0.260,0.862,-15.808,4.272,-50.415
0.037,0.145,0.875,-25.879,2.380,-59.937
0.037,0.131,0.852,-24.109,1.221,-68.604
0.063,-0.018,0.787,-18.677,0.122,-76.843
0.082,-0.020,0.844,-20.386,-1.038,-81.299
0.142,0.021,0.765,-14.587,0.305,-85.144
0.133,-0.045,0.732,-10.193,-2.869,-91.614
0.157,-0.250,0.776,-14.038,-6.042,-93.506
0.088,-0.198,0.901,-15.259,-8.362,-91.553
0.110,-0.267,0.782,-2.136,-7.507,-91.675
0.130,-0.712,0.906,-8.240,-12.817,-90.698
0.090,-0.893,1.069,-7.629,-11.658,-76.721
0.011,-0.803,1.226,0.977,-4.333,-64.880
0.040,-0.776,1.119,25.452,3.418,-60.669
0.128,-1.071,1.004,37.964,6.348,-54.016

0.146,-0.728,0.892,10.376,-2.502,60.730
0.139,-0.612,0.900,23.376,-2.747,71.167
0.112,-0.502,0.894,37.231,-3.662,78.186
0.081,-0.420,0.933,42.725,-6.165,83.984
0.061,-0.330,1.011,40.039,-8.118,89.539
0.052,-0.180,1.007,39.124,-7.629,93.445
0.055,-0.041,0.971,40.283,-6.592,94.360
-0.026,0.266,1.136,27.222,-5.432,89.417
-0.046,0.170,1.142,11.902,-2.258,78.552
0.042,-0.040,1.212,-21.362,-3.723,76.538
0.080,0.073,1.084,-41.870,-4.089,77.637
0.007,0.746,1.194,-24.048,1.343,64.148
-0.049,0.845,1.090,22.827,10.132,40.222
0.033,0.462,1.077,1.648,4.883,27.344
0.080,0.489,1.023,8.850,3.418,26.428
0.076,0.531,0.936,15.808,4.761,16.479
0.073,0.483,0.860,9.949,3.845,4.700
0.035,0.516,0.874,2.197,4.028,-6.226
0.012,0.608,0.839,5.920,5.859,-23.132
0.032,0.526,0.796,7.202,4.639,-38.696
0.056,0.390,0.795,3.662,2.380,-49.988
0.075,0.307,0.821,0.793,1.587,-58.289
0.085,0.266,0.790,0.977,0.183,-66.895
0.112,0.086,0.750,-0.183,-2.319,-75.989
0.109,-0.041,0.830,-5.737,-3.906,-80.444
0.139,-0.086,0.862,-7.507,-3.174,-84.473
0.118,-0.084,0.944,-8.423,-3.479,-91.858
0.103,-0.049,0.972,-5.737,-2.014,-99.426
0.130,-0.194,1.038,-2.563,-0.488,-104.187
0.178,-0.364,0.989,3.723,1.282,-101.013
0.156,-0.701,0.968,0.610,0.793,-94.543
0.137,-0.759,1.079,-4.944,-0.244,-80.750
0.226,-0.731,0.898,8.484,6.287,-67.871
0.258,-0.929,0.749,4.272,6.348,-62.012
0.254,-0.980,0.725,-11.719,3.845,-48.157
0.276,-0.894,0.657,-12.817,7.019,-31.555
0.261,-0.871,0.679,-14.587,4.761,-20.264
0.208,-0.938,0.827,-14.526,-2.380,-3.723
0.191,-1.132,0.839,-3.845,-7.080,16.541
0.185,-1.207,0.952,-4.883,-8.301,37.720
0.156,-1.090,0.988,6.104,-6.714,56.458
0.118,-0.871,0.964,22.827,-4.700,68.848
0.106,-0.673,1.008,32.654,-3.174,75.012
0.066,-0.453,1.029,47.241,-0.916,78.247
0.041,-0.265,1.008,72.815,-0.916,81.604
0.029,-0.160,0.967,85.999,-2.991,85.876
0.003,-0.074,1.046,79.407,-5.371,88.928
0.028,-0.063,0.952,65.796,-7.263,90.088
0.044,-0.208,1.000,32.776,-11.292,89.783
0.042,-0.177,1.059,-5.554,-13.245,87.708
0.026,-0.104,1.181,-27.466,-13.428,81.970
-0.015,0.115,1.169,-23.560,-7.751,76.355
0.012,-0.006,1.096,-36.865,-8.118,68.909
0.057,0.299,1.196,-41.565,-7.202,64.880
0.018,0.711,1.151,-1.221,0.610,52.734
-0.032,0.683,1.119,8.972,2.441,36.560
0.006,0.417,1.097,-3.662,-1.526,28.564
0.055,0.362,1.004,-8.423,-4.333,26.917
0.078,0.435,0.883,-14.771,-7.202,19.043
0.066,0.480,0.832,-19.958,-8.423,4.578
0.038,0.435,0.766,-25.574,-8.972,-12.512
0.035,0.401,0.745,-28.259,-9.827,-30.579
0.031,0.399,0.774,-25.757,-9.399,-45.593
0.042,0.336,0.832,-11.963,-7.385,-58.044
0.034,0.310,0.930,0.183,-5.127,-67.505
0.039,0.263,0.906,9.949,-4.639,-75.623
0.065,0.080,0.921,13.123,-6.165,-81.787
0.091,-0.028,0.955,9.827,-5.798,-83.496
0.124,-0.165,0.960,5.737,-5.676,-85.388
0.114,-0.178,1.093,-2.075,-5.310,-86.182
0.166,-0.236,0.958,1.099,-2.563,-87.219
0.220,-0.546,0.964,-11.292,-3.601,-88.074
0.202,-0.727,0.900,-14.893,-4.639,-79.163
0.237,-1.054,0.788,-26.123,-3.418,-65.613
0.193,-1.191,0.955,-51.697,-4.395,-48.645
0.196,-1.037,0.925,-39.368,2.808,-31.006
0.239,-0.981,0.843,-30.762,7.629,-21.057
0.258,-0.887,0.812,-30.029,7.996,-11.536
0.250,-0.777,0.774,-22.217,6.470,1.160
0.252,-0.772,0.767,-13.855,2.441,16.724
0.232,-0.799,0.804,-9.888,-1.160,33.691
0.204,-0.806,0.857,-0.366,-4.272,49.805
0.205,-0.780,0.886,9.338,-6.775,64.148
0.215,-0.763,0.914,15.015,-9.644,74.951
0.188,-0.704,0.967,14.709,-12.939,83.557
0.153,-0.593,0.971,21.790,-14.160,92.041
0.131,-0.381,0.920,28.931,-12.390,99.304
0.029,0.056,1.077,36.072,-7.935,100.586
-0.053,0.360,1.051,49.316,0.916,94.116
0.015,-0.082,1.111,12.146,-1.709,88.074
0.078,0.235,1.249,-22.156,-6.653,91.919
0.006,0.828,1.207,17.822,-1.282,80.322
-0.083,0.857,1.231,37.415,-0.732,55.176
-0.071,0.537,1.133,31.555,-4.822,40.161
-0.036,0.353,1.040,11.780,-7.812,33.386
-0.022,0.391,0.893,-5.798,-5.981,22.583
-0.001,0.355,0.803,-27.588,-5.127,7.141
-0.008,0.520,0.926,-42.969,-3.845,-8.972
-0.059,0.835,0.929,-16.602,2.625,-28.992
-0.025,0.727,0.962,-0.732,4.761,-51.697
0.046,0.523,0.931,1.221,1.770,-66.284
0.106,0.300,0.876,5.310,-2.014,-73.669
0.116,0.136,0.895,3.357,-4.395,-78.369
0.115,0.081,0.852,4.395,-4.395,-81.726
0.149,-0.081,0.807,0.305,-6.470,-85.754
0.165,-0.232,0.843,-8.911,-8.179,-88.440
0.155,-0.275,0.928,-15.869,-6.165,-90.515
0.115,-0.087,1.115,-10.071,-3.601,-94.299
0.174,-0.113,0.804,10.742,0.122,-100.464
0.217,-0.511,0.900,-1.953,-5.981,-104.187
0.232,-0.659,0.909,-6.531,-7.141,-91.003
0.185,-0.845,0.885,-1.709,-5.615,-74.951
0.186,-1.099,0.948,-15.747,-7.446,-61.096
0.213,-1.237,0.913,-20.874,-5.432,-42.542
0.226,-1.232,0.844,-25.574,-3.052,-23.560
0.284,-1.285,0.754,-29.724,-2.869,-7.507
0.312,-1.295,0.731,-40.649,-3.296,9.216
0.269,-1.159,0.809,-42.908,-1.038,28.442
0.186,-1.010,0.798,-22.644,-2.686,46.143

0.080,0.489,1.023,8.850,3.418,26.428
0.076,0.531,0.936,15.808,4.761,16.479
0.073,0.483,0.860,9.949,3.845,4.700
0.035,0.516,0.874,2.197,4.028,-6.226
0.012,0.608,0.839,5.920,5.859,-23.132
0.032,0.526,0.796,7.202,4.639,-38.696
0.056,0.390,0.795,3.662,2.380,-49.988
0.075,0.307,0.821,0.793,1.587,-58.289
0.085,0.266,0.790,0.977,0.183,-66.895
0.112,0.086,0.750,-0.183,-2.319,-75.989
0.109,-0.041,0.830,-5.737,-3.906,-80.444
0.139,-0.086,0.862,-7.507,-3.174,-84.473
0.118,-0.084,0.944,-8.423,-3.479,-91.858
0.103,-0.049,0.972,-5.737,-2.014,-99.426
0.130,-0.194,1.038,-2.563,-0.488,-104.187
0.178,-0.364,0.989,3.723,1.282,-101.013
0.156,-0.701,0.968,0.610,0.793,-94.543
0.137,-0.759,1.079,-4.944,-0.244,-80.750
0.226,-0.731,0.898,8.484,6.287,-67.871
0.258,-0.929,0.749,4.272,6.348,-62.012
0.254,-0.980,0.725,-11.719,3.845,-48.157
0.276,-0.894,0.657,-12.817,7.019,-31.555
0.261,-0.871,0.679,-14.587,4.761,-20.264
0.208,-0.938,0.827,-14.526,-2.380,-3.723
0.191,-1.132,0.839,-3.845,-7.080,16.541
0.185,-1.207,0.952,-4.883,-8.301,37.720
-0.063,0.248,0.863,-59.387,1.221,-8.057
-0.115,0.260,0.923,-56.946,-0.427,-4.883
-0.169,0.317,0.922,-51.086,-1.709,-3.296
-0.208,0.384,0.931,-47.546,-4.333,-3.662
-0.237,0.464,0.972,-41.138,-6.592,-4.944
-0.260,0.531,1.016,-33.997,-9.399,-7.019
-0.261,0.480,0.973,-32.288,-13.245,-10.742
-0.210,0.307,0.919,-46.387,-17.212,-15.320
-0.153,0.208,0.820,-60.669,-18.188,-20.203
-0.146,0.204,0.801,-76.538,-17.090,-25.330
-0.190,0.310,0.823,-88.135,-16.174,-31.189
-0.276,0.416,0.976,-102.234,-16.418,-37.354
-0.385,0.608,1.146,-111.389,-13.794,-41.687
-0.432,0.689,1.185,-106.323,-8.362,-45.410
-0.377,0.619,1.100,-96.375,-4.150,-48.889
-0.294,0.514,0.961,-81.238,-2.197,-52.429
-0.235,0.367,0.838,-70.068,-1.892,-55.054
-0.200,0.245,0.704,-64.514,-4.028,-56.580
-0.177,0.173,0.672,-61.768,-6.287,-58.044
-0.165,0.114,0.637,-61.707,-7.385,-59.143
-0.148,-0.006,0.643,-66.284,-8.911,-59.326
-0.161,-0.049,0.691,-74.646,-11.108,-56.763
-0.170,-0.026,0.771,-80.750,-12.573,-54.565
-0.173,0.046,0.810,-78.918,-14.099,-53.772
-0.155,0.078,0.801,-69.336,-14.343,-50.293
-0.146,0.126,0.705,-56.702,-16.418,-44.250
-0.101,-0.098,0.624,-63.049,-20.752,-36.560
-0.115,-0.163,0.710,-83.374,-27.283,-23.010
-0.100,-0.017,0.594,-70.068,-28.503,-7.751
-0.104,0.001,0.493,-57.434,-32.104,2.930
-0.136,0.016,0.620,-60.730,-39.063,15.625
-0.168,0.070,0.600,-42.297,-41.687,30.945
-0.210,0.053,0.684,-32.471,-45.532,43.762
-0.219,0.051,0.718,-17.456,-46.570,55.603
-0.214,0.078,0.756,-1.953,-46.509,66.223
-0.256,0.239,0.836,19.043,-46.082,73.608
-0.362,0.608,0.971,52.551,-42.419,77.515
-0.495,0.989,1.189,87.830,-35.217,75.256
-0.520,1.069,1.168,108.948,-28.320,69.153
-0.451,0.956,1.019,95.276,-30.640,63.293
-0.468,1.078,1.151,46.387,-31.372,57.495
-0.448,0.958,1.055,2.258,-24.841,44.373
-0.358,0.888,0.903,-41.504,-26.489,35.461
-0.329,1.025,0.823,-66.650,-29.602,29.785
-0.338,1.190,0.788,-76.416,-30.151,19.165
-0.352,1.218,0.752,-67.566,-30.212,8.850
-0.346,1.039,0.783,-60.547,-31.555,5.371
-0.347,0.945,0.788,-49.927,-32.104,8.667
-0.336,0.861,0.806,-36.743,-31.067,13.123
-0.373,0.980,0.865,-21.545,-26.611,14.526
-0.386,1.014,0.896,-30.212,-27.039,7.507
-0.374,0.989,0.916,-34.668,-24.841,1.892
-0.352,1.038,0.902,-42.419,-23.132,-2.991
-0.331,1.064,0.870,-48.157,-21.301,-7.080
-0.328,1.056,0.844,-58.899,-21.057,-12.085
-0.306,1.090,0.791,-65.491,-21.545,-17.334
-0.291,1.068,0.759,-73.669,-24.109,-23.499
-0.294,1.058,0.719,-83.740,-26.001,-27.649
-0.322,1.051,0.672,-88.379,-28.198,-31.311
-0.374,1.012,0.666,-91.003,-30.334,-35.217
-0.432,1.051,0.758,-88.196,-30.701,-40.466
-0.486,1.097,0.771,-75.562,-27.405,-46.265
-0.532,1.091,0.803,-60.181,-26.184,-51.514
-0.539,1.035,0.790,-48.157,-24.109,-54.199
-0.507,0.890,0.793,-48.401,-22.522,-57.007
-0.431,0.833,0.809,-52.307,-20.142,-58.838
-0.362,0.728,0.560,-51.575,-17.639,-59.143
-0.332,0.409,0.681,-73.669,-21.973,-57.678
-0.275,0.311,0.616,-86.975,-20.630,-46.997
-0.204,0.170,0.355,-85.388,-19.470,-34.668
-0.177,-0.036,0.313,-105.530,-26.672,-22.522
-0.219,0.137,0.327,-102.417,-32.593,-5.737
-0.254,0.336,0.292,-75.134,-36.804,8.789
-0.293,0.328,0.406,-63.293,-42.908,21.179
-0.334,0.369,0.465,-40.405,-48.584,39.734
-0.356,0.386,0.526,-17.273,-50.293,59.387
-0.412,0.497,0.636,1.099,-51.636,75.378
-0.483,0.648,0.748,28.259,-55.481,87.708
-0.538,0.663,0.816,51.392,-61.829,95.581
-0.574,0.734,0.942,62.866,-62.073,100.891
-0.661,0.967,1.135,65.186,-55.786,102.478
-0.770,1.081,1.198,45.288,-48.279,98.694
-0.745,1.092,0.877,40.344,-46.326,92.651
-0.720,0.911,0.713,18.921,-45.959,85.022
-0.687,1.047,0.802,-6.409,-38.452,75.073
-0.724,1.198,0.654,4.517,-29.785,61.829
-0.733,1.313,0.737,6.287,-30.640,46.143
-0.633,1.312,0.581,37.292,-26.611,34.424
-0.562,1.098,0.539,43.640,-29.419,24.719
-0.512,0.954,0.473,42.419,-30.029,20.996
-0.490,0.953,0.458,36.682,-30.151,18.616
-0.496,1.025,0.478,29.541,-29.785,14.954
-0.506,1.008,0.502,19.653,-31.250,9.338

0.152,-1.025,0.534,20.630,5.310,-18.250
0.192,-0.943,0.519,18.372,5.188,-11.414
0.203,-0.906,0.487,17.212,3.601,-5.676
0.197,-0.921,0.407,15.747,-0.916,-0.305
0.182,-1.089,0.302,10.925,-7.568,6.165
0.159,-1.265,0.242,3.174,-14.160,15.442
0.144,-1.297,0.237,-1.465,-18.250,26.001
0.137,-1.242,0.316,-2.686,-20.447,35.339
0.134,-1.195,0.423,-5.615,-23.499,42.786
0.166,-1.142,0.525,-10.254,-26.062,49.500
0.178,-1.113,0.595,-9.644,-27.954,57.129
0.156,-1.115,0.657,-6.042,-30.396,66.833
0.125,-1.053,0.692,0.183,-31.921,77.026
0.115,-0.836,0.786,1.343,-30.640,83.130
0.030,-0.340,1.200,-0.793,-23.193,81.543
0.090,-0.165,1.035,-13.123,-8.362,69.641
0.247,-0.341,1.021,-18.188,-8.301,66.772
0.306,-0.167,0.919,6.348,-6.958,67.627
0.240,-0.259,0.873,18.555,-3.235,62.622
0.233,-0.382,0.862,12.939,-0.305,61.218
0.209,-0.416,0.831,4.822,3.784,62.988
0.209,-0.418,0.748,-2.563,6.287,65.063
0.175,-0.302,0.766,-6.104,8.850,66.406
0.138,-0.083,0.784,-8.118,13.916,62.317
0.134,0.175,0.829,-4.822,19.836,51.880
0.130,0.230,0.809,0.122,23.804,36.682
0.148,0.237,0.805,-4.028,23.926,21.851
0.160,0.338,0.734,-5.249,25.391,6.836
0.197,0.345,0.659,-5.432,25.574,-11.719
0.218,0.226,0.620,-4.517,24.841,-30.518
0.202,0.066,0.584,-4.150,22.888,-46.570
0.154,-0.061,0.583,-7.568,20.142,-60.547
0.122,-0.121,0.514,-12.451,18.494,-74.219
0.111,-0.356,0.424,-27.100,14.832,-88.196
0.121,-0.502,0.449,-49.133,9.277,-99.243
0.087,-0.454,0.492,-53.894,6.897,-108.032
0.065,-0.660,0.421,-45.410,2.563,-115.784
0.039,-0.958,0.455,-39.734,-6.958,-117.554
0.030,-1.233,0.422,-17.700,-12.512,-108.276
-0.007,-1.744,0.527,-5.493,-19.592,-93.872
-0.128,-1.764,0.787,15.503,-14.954,-69.885
-0.012,-1.796,0.828,24.048,-10.559,-53.589
0.093,-2.138,0.752,15.076,-11.536,-34.302
0.090,-2.188,0.720,18.555,-15.991,-0.549
0.114,-2.083,0.693,17.883,-15.503,29.663
0.204,-1.815,0.718,9.399,-12.024,50.842
0.253,-1.459,0.760,7.263,-8.484,64.575
0.262,-1.134,0.853,12.146,-5.737,74.890
0.281,-0.985,0.949,18.066,-4.395,84.473
0.281,-0.876,0.957,20.142,-3.174,94.666
0.334,-0.648,0.896,17.517,-0.122,103.027
0.332,-0.503,0.909,6.042,4.333,102.295
0.301,-0.334,0.771,-11.353,10.071,97.412
0.302,-0.176,0.936,-26.062,14.465,90.637
0.331,0.237,0.859,-12.878,22.766,83.679
0.259,0.076,0.738,-0.793,23.071,74.097
0.276,-0.149,0.725,-3.601,18.677,65.979
0.253,-0.047,0.675,-12.329,21.057,58.472
0.209,0.072,0.517,-11.108,21.667,50.720
0.200,0.071,0.427,-11.414,16.235,37.842
0.190,0.198,0.421,-13.245,12.573,18.677
0.133,0.332,0.505,-6.287,10.864,-3.113
0.104,0.334,0.586,0.427,7.263,-23.621
0.111,0.270,0.617,3.235,1.709,-41.260
0.107,0.112,0.611,3.479,-3.540,-56.580
0.090,-0.060,0.565,3.113,-6.531,-70.068
0.044,-0.273,0.557,-1.404,-8.728,-82.520
0.054,-0.408,0.555,-12.268,-10.742,-91.125
0.033,-0.422,0.619,-28.625,-11.597,-98.999
0.068,-0.256,0.661,-35.583,-8.179,-109.009
0.067,-0.414,0.523,-26.367,-6.531,-118.896
0.031,-1.005,0.667,-30.579,-15.564,-118.713
0.075,-1.233,0.710,-23.682,-16.479,-106.689
0.072,-1.243,0.696,-27.405,-13.489,-98.267
0.109,-1.464,0.705,-28.320,-11.169,-84.778
0.137,-1.549,0.907,-11.108,-11.902,-66.956
0.218,-1.675,0.803,9.399,-7.996,-49.805
0.198,-1.916,0.706,10.315,-12.085,-29.175
0.241,-2.039,0.757,8.179,-14.038,1.465
0.300,-1.954,0.708,-2.930,-10.254,27.954
0.297,-1.685,0.703,-12.268,-7.507,48.401
0.291,-1.315,0.753,-12.939,-3.357,62.622
0.285,-1.030,0.830,-4.395,-0.183,71.960
0.277,-0.971,0.872,5.981,0.244,79.041
0.274,-0.947,0.882,11.902,-0.366,87.646
0.281,-0.804,0.803,15.015,0.854,96.863
0.313,-0.597,0.741,14.343,3.601,99.670
0.270,-0.262,0.779,9.155,7.507,94.177
0.217,-0.181,0.792,-2.808,10.681,86.853
0.296,0.000,0.937,-9.827,14.282,81.665
0.312,0.194,0.794,-0.732,19.104,72.571
0.260,0.065,0.796,2.625,16.479,60.974
0.243,0.127,0.810,-4.517,17.151,47.668
0.214,0.142,0.654,-12.634,18.494,35.828
0.201,0.044,0.567,-16.663,13.672,23.804
0.176,0.080,0.528,-18.738,10.742,5.249
0.109,0.112,0.556,-14.709,8.606,-14.648
0.062,0.082,0.623,-5.859,4.089,-32.654
0.059,-0.043,0.647,-2.197,-0.977,-47.852
0.068,-0.183,0.624,-4.700,-4.700,-59.448
0.075,-0.189,0.573,-8.667,-6.775,-70.129
0.101,-0.191,0.420,-14.160,-9.460,-81.299
0.080,-0.406,0.453,-28.442,-14.954,-93.445
0.067,-0.490,0.502,-38.391,-17.395,-100.830
0.042,-0.741,0.552,-41.992,-20.935,-102.722
0.043,-0.841,0.657,-36.865,-25.757,-95.581
-0.023,-1.192,0.727,-43.457,-28.198,-88.623
0.000,-1.224,0.879,-37.170,-26.611,-70.862
0.029,-1.386,0.898,-21.851,-20.569,-57.068
0.128,-1.589,0.864,-12.695,-20.569,-41.687
0.159,-1.604,0.830,-3.296,-20.752,-20.447
0.203,-1.555,0.805,6.470,-20.142,2.014
0.250,-1.601,0.771,10.193,-17.944,23.926
0.253,-1.504,0.757,9.827,-17.273,45.837
0.280,-1.256,0.777,10.254,-13.672,62.866
0.333,-0.983,0.811,10.254,-9.827,73.608
0.394,-0.804,0.865,12.329,-7.812,81.604
0.401,-0.802,0.914,12.329,-6.958,90.393
0.445,-0.429,1.127,12.573,-1.587,97.168

0.192,-0.943,0.519,18.372,5.188,-11.414
0.203,-0.906,0.487,17.212,3.601,-5.676
0.197,-0.921,0.407,15.747,-0.916,-0.305
0.182,-1.089,0.302,10.925,-7.568,6.165
0.159,-1.265,0.242,3.174,-14.160,15.442
0.144,-1.297,0.237,-1.465,-18.250,26.001
0.137,-1.242,0.316,-2.686,-20.447,35.339
0.134,-1.195,0.423,-5.615,-23.499,42.786
0.166,-1.142,0.525,-10.254,-26.062,49.500
0.178,-1.113,0.595,-9.644,-27.954,57.129
0.156,-1.115,0.657,-6.042,-30.396,66.833
0.125,-1.053,0.692,0.183,-31.921,77.026
0.115,-0.836,0.786,1.343,-30.640,83.130
0.030,-0.340,1.200,-0.793,-23.193,81.543
0.090,-0.165,1.035,-13.123,-8.362,69.641
0.247,-0.341,1.021,-18.188,-8.301,66.772
0.306,-0.167,0.919,6.348,-6.958,67.627
0.240,-0.259,0.873,18.555,-3.235,62.622
0.233,-0.382,0.862,12.939,-0.305,61.218
0.209,-0.416,0.831,4.822,3.784,62.988
0.209,-0.418,0.748,-2.563,6.287,65.063
0.175,-0.302,0.766,-6.104,8.850,66.406
0.138,-0.083,0.784,-8.118,13.916,62.317
0.134,0.175,0.829,-4.822,19.836,51.880
0.130,0.230,0.809,0.122,23.804,36.682
0.148,0.237,0.805,-4.028,23.926,21.851
0.160,0.338,0.734,-5.249,25.391,6.836
0.197,0.345,0.659,-5.432,25.574,-11.719
0.218,0.226,0.620,-4.517,24.841,-30.518
0.202,0.066,0.584,-4.150,22.888,-46.570
0.154,-0.061,0.583,-7.568,20.142,-60.547
0.122,-0.121,0.514,-12.451,18.494,-74.219
0.111,-0.356,0.424,-27.100,14.832,-88.196
0.121,-0.502,0.449,-49.133,9.277,-99.243
0.087,-0.454,0.492,-53.894,6.897,-108.032
0.065,-0.660,0.421,-45.410,2.563,-115.784
0.039,-0.958,0.455,-39.734,-6.958,-117.554
0.030,-1.233,0.422,-17.700,-12.512,-108.276
-0.007,-1.744,0.527,-5.493,-19.592,-93.872
0.465,-1.089,0.791,2.563,6.531,35.645
0.452,-0.974,0.803,0.854,8.728,42.053
0.430,-0.914,0.839,2.197,10.132,46.875
0.414,-0.894,0.864,8.118,11.292,52.429
0.393,-0.937,0.865,14.465,12.390,59.387
0.384,-0.908,0.857,18.250,13.489,66.528
0.381,-0.747,0.862,22.278,15.869,70.496
0.331,-0.654,0.729,26.184,18.127,70.679
0.272,-0.600,0.710,19.348,16.357,70.984
0.305,-0.258,0.798,9.583,18.982,67.932
0.280,-0.110,0.766,0.610,22.278,58.716
0.309,-0.078,0.735,-1.038,20.935,53.162
0.334,-0.093,0.710,1.282,20.508,46.448
0.325,-0.093,0.675,1.709,19.531,39.856
0.340,0.107,0.665,3.174,17.822,32.410
0.281,0.189,0.596,7.385,15.869,19.165
0.241,0.141,0.539,5.981,10.559,5.310
0.218,0.092,0.468,3.113,5.310,-7.141
0.227,0.137,0.437,0.000,0.000,-20.325
0.214,0.104,0.423,4.822,-4.822,-35.217
0.199,-0.085,0.448,9.705,-10.254,-47.180
0.204,-0.228,0.463,8.423,-14.282,-55.969
0.171,-0.224,0.549,1.343,-17.151,-64.148
0.167,-0.196,0.516,-3.174,-17.395,-72.571
0.197,-0.391,0.546,-14.343,-21.484,-79.346
0.205,-0.501,0.655,-23.926,-25.940,-79.041
0.201,-0.454,0.755,-21.179,-28.076,-76.599
0.240,-0.409,0.778,-6.409,-27.039,-76.721
0.272,-0.632,0.724,7.446,-27.161,-75.745
0.315,-0.961,0.762,7.935,-29.663,-67.871
0.270,-1.144,0.899,7.324,-27.405,-56.152
0.233,-1.117,0.978,6.470,-20.325,-45.349
0.300,-1.145,1.003,6.226,-15.930,-38.879
0.314,-1.173,0.999,13.245,-13.611,-30.334
0.349,-1.240,0.987,17.334,-11.047,-19.897
0.380,-1.281,0.970,19.043,-7.202,-8.057
0.397,-1.286,0.943,21.545,-3.845,5.005
0.410,-1.312,0.896,22.461,-0.244,18.494
0.415,-1.322,0.826,18.738,1.953,31.616
0.411,-1.206,0.784,11.963,3.906,43.213
0.388,-1.027,0.790,3.845,7.996,51.147
0.362,-0.904,0.814,-1.221,12.207,57.739
0.345,-0.886,0.828,-1.404,15.381,64.392
0.338,-0.858,0.814,-0.977,16.846,70.984
0.342,-0.643,0.828,0.122,18.005,75.256
0.304,-0.462,0.740,10.742,20.020,75.745
0.321,-0.509,0.657,27.649,18.433,77.087
0.330,-0.448,0.444,40.405,14.709,76.172
0.230,-0.518,0.530,23.437,7.507,71.411
0.290,0.129,0.579,9.888,10.376,63.538
0.237,0.246,0.511,12.878,11.108,44.617
0.238,-0.037,0.477,15.930,3.723,37.964
0.263,0.008,0.496,11.902,-2.319,34.119
0.157,0.150,0.492,12.451,-5.310,19.836
0.089,0.069,0.470,8.118,-8.728,-0.366
0.125,-0.020,0.466,-5.371,-13.611,-15.747
0.145,0.005,0.492,-15.991,-18.921,-27.588
0.122,-0.126,0.520,-17.822,-22.522,-38.757
0.112,-0.287,0.531,-20.325,-24.414,-47.363
0.099,-0.311,0.556,-27.283,-26.367,-54.626
0.105,-0.317,0.538,-37.537,-27.161,-62.927
0.175,-0.355,0.484,-52.307,-29.602,-70.068
0.225,-0.316,0.524,-62.256,-33.875,-71.899
0.231,-0.159,0.596,-50.232,-37.415,-73.120
0.274,-0.135,0.602,-22.278,-40.405,-75.928
0.270,-0.602,0.649,-8.667,-46.814,-78.186
0.326,-0.866,0.792,-9.338,-51.453,-73.181
0.299,-0.944,0.932,-4.517,-47.668,-66.956
0.229,-1.136,1.104,0.305,-45.105,-59.814
0.323,-1.303,1.170,0.977,-38.513,-50.232
0.334,-1.400,1.302,1.587,-33.325,-36.133
0.375,-1.303,1.284,3.662,-24.902,-21.667
0.395,-1.298,1.214,10.559,-14.282,-11.597
0.429,-1.432,1.117,13.550,-8.057,2.502
0.410,-1.527,0.982,12.207,-5.249,21.973
0.365,-1.411,0.891,6.226,-2.197,38.757
0.367,-1.119,0.797,-1.465,2.869,46.692
0.346,-0.916,0.740,-5.493,6.653,50.293
0.336,-0.874,0.705,-2.014,7.812,55.542
0.347,-0.907,0.726,3.906,6.348,62.195

0.203,-0.906,0.487,17.212,3.601,-5.676
0.197,-0.921,0.407,15.747,-0.916,-0.305
0.182,-1.089,0.302,10.925,-7.568,6.165
0.159,-1.265,0.242,3.174,-14.160,15.442
0.144,-1.297,0.237,-1.465,-18.250,26.001
0.137,-1.242,0.316,-2.686,-20.447,35.339
0.134,-1.195,0.423,-5.615,-23.499,42.786
0.166,-1.142,0.525,-10.254,-26.062,49.500
0.178,-1.113,0.595,-9.644,-27.954,57.129
0.156,-1.115,0.657,-6.042,-30.396,66.833
0.125,-1.053,0.692,0.183,-31.921,77.026
0.115,-0.836,0.786,1.343,-30.640,83.130
0.030,-0.340,1.200,-0.793,-23.193,81.543
0.090,-0.165,1.035,-13.123,-8.362,69.641
0.247,-0.341,1.021,-18.188,-8.301,66.772
0.306,-0.167,0.919,6.348,-6.958,67.627
0.240,-0.259,0.873,18.555,-3.235,62.622
0.233,-0.382,0.862,12.939,-0.305,61.218
0.209,-0.416,0.831,4.822,3.784,62.988
0.209,-0.418,0.748,-2.563,6.287,65.063
0.175,-0.302,0.766,-6.104,8.850,66.406
0.138,-0.083,0.784,-8.118,13.916,62.317
0.134,0.175,0.829,-4.822,19.836,51.880
0.130,0.230,0.809,0.122,23.804,36.682
0.148,0.237,0.805,-4.028,23.926,21.851
0.160,0.338,0.734,-5.249,25.391,6.836
0.197,0.345,0.659,-5.432,25.574,-11.719
0.218,0.226,0.620,-4.517,24.841,-30.518
0.202,0.066,0.584,-4.150,22.888,-46.570
0.154,-0.061,0.583,-7.568,20.142,-60.547
0.122,-0.121,0.514,-12.451,18.494,-74.219
0.111,-0.356,0.424,-27.100,14.832,-88.196
0.121,-0.502,0.449,-49.133,9.277,-99.243
0.087,-0.454,0.492,-53.894,6.897,-108.032
0.065,-0.660,0.421,-45.410,2.563,-115.784
0.039,-0.958,0.455,-39.734,-6.958,-117.554
0.030,-1.233,0.422,-17.700,-12.512,-108.276
-0.007,-1.744,0.527,-5.493,-19.592,-93.872
0.465,-1.089,0.791,2.563,6.531,35.645
0.328,-1.124,1.028,-3.906,-12.268,-21.118
0.376,-1.151,1.012,5.432,-11.230,-12.268
0.376,-1.206,0.999,14.893,-10.864,-1.770
0.360,-1.278,0.944,21.423,-7.446,10.559
0.348,-1.239,0.897,22.095,-4.089,22.949
0.350,-1.123,0.870,19.531,0.916,31.677
0.321,-1.030,0.874,16.418,5.798,38.391
0.289,-1.034,0.901,15.930,9.277,46.753
0.283,-1.054,0.933,18.127,12.817,56.213
0.279,-0.996,0.907,23.804,16.235,64.819
0.287,-0.855,0.849,26.917,19.531,70.374
0.274,-0.704,0.823,25.330,22.522,72.327
0.303,-0.419,0.756,21.912,25.574,69.214
0.287,-0.451,0.779,10.742,24.780,63.660
0.302,-0.140,0.711,13.550,26.123,60.547
0.252,-0.251,0.594,22.217,25.146,53.650
0.279,-0.329,0.558,26.184,20.996,53.894
0.261,-0.146,0.457,29.724,19.043,49.072
0.141,-0.133,0.340,21.790,14.160,36.072
0.155,0.185,0.276,-0.977,7.874,21.362
0.238,0.573,0.213,-16.602,3.540,1.709
0.186,0.649,0.207,-13.184,-4.639,-19.348
0.145,0.500,0.212,1.892,-16.357,-40.283
0.149,0.256,0.228,17.273,-28.076,-59.143
0.122,-0.046,0.265,26.123,-36.499,-74.158
0.103,-0.257,0.326,14.282,-42.175,-84.106
0.107,-0.347,0.403,-14.099,-43.091,-92.712
0.099,-0.270,0.538,-42.114,-41.077,-98.938
0.120,-0.196,0.628,-68.176,-38.574,-104.980
0.091,-0.241,0.936,-77.759,-37.964,-109.314
0.180,-0.426,1.000,-49.805,-31.921,-103.577
0.104,-0.794,0.777,-31.677,-32.654,-99.365
0.195,-1.244,0.851,-22.339,-39.124,-86.792
0.160,-1.216,1.025,-10.315,-31.738,-74.463
0.209,-1.068,1.082,-10.010,-17.273,-63.049
0.192,-1.485,1.196,-12.207,-12.207,-53.284
0.266,-1.445,1.158,1.953,-5.920,-34.424
0.254,-1.469,1.033,13.123,-1.343,-20.264
0.306,-1.646,1.000,22.278,1.648,-2.014
0.322,-1.982,0.970,14.038,5.798,20.264
0.316,-1.847,0.961,1.404,11.719,42.236
0.330,-1.428,0.928,-7.507,20.447,50.964
0.342,-1.127,0.906,-7.996,25.940,53.589
0.333,-1.053,0.921,1.282,26.611,58.838
0.304,-1.083,0.957,17.334,25.635,65.979
0.289,-1.123,0.925,32.959,25.391,73.730
0.305,-1.111,0.794,40.405,24.414,81.299
0.313,-1.010,0.663,44.250,23.254,86.426
0.250,-0.996,0.488,43.457,21.057,88.379
0.251,-0.498,0.627,35.461,18.433,88.623
0.178,-0.289,0.701,26.672,20.813,77.026
0.238,-0.079,0.717,22.461,21.057,66.406
0.244,-0.234,0.690,21.973,17.944,56.458
0.263,-0.193,0.678,24.048,15.198,55.237
0.213,-0.134,0.578,29.846,14.343,50.781
0.224,-0.107,0.545,27.588,11.902,45.532
0.210,0.108,0.531,23.193,11.597,38.086
0.119,0.208,0.420,16.052,10.620,23.987
0.098,0.010,0.369,-6.531,3.967,10.071
0.227,0.367,0.312,-27.649,-0.244,-1.587
0.187,0.449,0.229,-33.875,-2.625,-24.048
0.168,0.283,0.203,-36.743,-10.315,-44.373
0.179,0.160,0.185,-35.156,-18.555,-62.195
0.161,0.000,0.272,-39.612,-25.757,-78.796
0.150,-0.198,0.380,-49.927,-31.372,-90.088
0.133,-0.457,0.517,-72.571,-37.476,-95.154
0.104,-0.465,0.736,-91.309,-39.368,-96.069
0.104,-0.339,0.950,-70.129,-35.400,-95.093
0.168,-0.546,0.791,-34.302,-30.334,-95.093
0.190,-1.161,0.849,-25.085,-38.086,-87.708
0.234,-1.243,1.004,-6.226,-36.682,-69.580
0.229,-1.122,0.971,8.179,-24.841,-61.951
0.235,-1.521,1.056,-0.244,-22.034,-51.575
0.283,-1.514,1.171,3.296,-16.785,-30.396
0.272,-1.443,1.075,13.977,-9.033,-17.029
0.254,-1.521,1.058,18.433,-5.798,-3.967
0.289,-1.591,1.020,18.860,-1.465,12.085
0.286,-1.562,0.956,14.221,2.747,27.588
0.300,-1.316,0.894,9.766,6.958,39.612
0.331,-1.078,0.835,6.470,10.986,45.715

0.134,0.175,0.829,-4.822,19.836,51.880
0.130,0.230,0.809,0.122,23.804,36.682
0.148,0.237,0.805,-4.028,23.926,21.851
0.160,0.338,0.734,-5.249,25.391,6.836
0.197,0.345,0.659,-5.432,25.574,-11.719
0.218,0.226,0.620,-4.517,24.841,-30.518
0.202,0.066,0.584,-4.150,22.888,-46.570
0.154,-0.061,0.583,-7.568,20.142,-60.547
0.122,-0.121,0.514,-12.451,18.494,-74.219
0.111,-0.356,0.424,-27.100,14.832,-88.196
0.121,-0.502,0.449,-49.133,9.277,-99.243
0.087,-0.454,0.492,-53.894,6.897,-108.032
0.065,-0.660,0.421,-45.410,2.563,-115.784
0.039,-0.958,0.455,-39.734,-6.958,-117.554
0.030,-1.233,0.422,-17.700,-12.512,-108.276
-0.007,-1.744,0.527,-5.493,-19.592,-93.872
0.465,-1.089,0.791,2.563,6.531,35.645
0.328,-1.124,1.028,-3.906,-12.268,-21.118
-0.220,0.531,0.719,0.488,-8.057,-60.059
-0.167,0.251,0.594,-10.620,-9.949,-64.331
-0.101,-0.078,0.623,-41.504,-12.207,-59.326
-0.040,-0.184,0.566,-56.030,-10.498,-47.302
-0.029,-0.271,0.661,-69.214,-10.681,-37.292
-0.002,-0.203,0.750,-78.857,-9.644,-26.855
-0.058,-0.049,0.823,-62.012,-11.719,-18.127
-0.093,-0.014,0.850,-29.419,-15.320,-6.042
-0.087,-0.282,0.851,0.305,-20.264,11.963
-0.093,-0.443,0.921,7.568,-22.888,35.217
-0.133,-0.233,0.966,16.113,-20.935,56.335
-0.190,0.071,0.945,29.785,-17.761,67.688
-0.219,0.127,0.896,35.522,-13.184,72.571
-0.198,0.010,0.846,33.447,-8.728,79.712
-0.194,-0.073,0.816,28.748,-6.836,89.844
-0.213,-0.027,0.719,26.733,-6.653,100.159
-0.217,0.128,0.638,21.851,-6.531,106.567
-0.255,0.488,0.688,20.386,-5.859,107.300
-0.352,0.774,0.683,22.034,-5.127,101.257
-0.459,0.767,0.773,6.592,-8.301,95.825
-0.470,0.806,0.868,-6.409,-7.751,96.008
-0.541,0.881,0.839,-5.005,-6.104,94.177
-0.610,1.015,0.963,-12.268,-7.324,85.266
-0.633,1.196,0.910,-6.653,-5.981,69.641
-0.650,1.268,0.872,-8.240,-6.592,48.218
-0.678,1.314,0.840,-11.108,-7.507,27.222
-0.675,1.291,0.850,-17.334,-7.324,7.568
-0.678,1.270,0.830,-18.250,-6.592,-7.385
-0.658,1.201,0.818,-14.709,-8.423,-24.902
-0.586,1.080,0.781,-7.080,-10.010,-40.527
-0.494,0.898,0.740,-2.563,-12.085,-49.561
-0.416,0.727,0.725,-2.502,-13.977,-52.551
-0.361,0.604,0.754,-6.348,-15.015,-52.429
-0.340,0.592,0.773,-10.254,-14.282,-51.819
-0.324,0.524,0.766,-11.780,-13.245,-53.833
-0.302,0.465,0.773,-14.404,-12.695,-55.054
-0.295,0.441,0.789,-15.625,-11.536,-55.054
-0.304,0.409,0.794,-12.878,-10.498,-54.443
-0.298,0.307,0.810,-12.268,-9.766,-52.429
-0.261,0.159,0.799,-14.343,-8.850,-47.852
-0.261,0.006,0.820,-18.127,-8.484,-41.138
-0.247,-0.115,0.779,-21.423,-7.812,-31.311
-0.195,-0.183,0.751,-23.560,-5.737,-19.836
-0.162,-0.164,0.679,-21.912,-2.625,-7.629
-0.144,-0.087,0.630,-20.752,-0.488,5.249
-0.153,-0.027,0.581,-17.944,-1.282,17.395
-0.175,0.034,0.589,-13.367,-5.432,29.602
-0.198,0.128,0.650,-5.737,-7.690,41.687
-0.216,0.203,0.730,11.047,-10.071,51.331
-0.235,0.215,0.782,26.184,-11.597,59.326
-0.249,0.146,0.765,35.217,-13.916,66.589
-0.226,0.085,0.749,32.471,-15.198,75.012
-0.215,0.296,0.844,27.344,-13.794,82.336
-0.269,0.424,0.720,32.593,-12.268,83.069
-0.319,0.522,0.889,21.423,-12.695,84.106
-0.331,0.938,0.880,44.189,-8.545,82.642
-0.444,1.107,1.037,67.383,-9.033,69.763
-0.559,1.037,1.048,71.655,-7.629,55.725
-0.620,0.922,1.110,38.696,-3.967,42.297
-0.499,0.893,1.084,3.235,4.333,30.884
-0.411,1.035,0.931,-15.747,10.071,18.860
-0.455,1.105,0.853,-16.296,10.071,3.357
-0.471,1.133,0.852,-10.010,10.071,-10.315
-0.475,1.090,0.821,0.183,10.437,-23.193
-0.447,0.954,0.799,3.235,8.606,-34.790
-0.434,0.814,0.828,4.089,5.554,-43.152
-0.443,0.716,0.848,5.432,2.991,-49.011
-0.437,0.648,0.826,7.996,1.648,-53.650
-0.415,0.564,0.841,5.371,0.549,-58.838
-0.387,0.576,0.792,5.615,1.831,-63.110
-0.371,0.504,0.703,5.371,2.258,-66.589
-0.317,0.436,0.683,-5.249,-1.648,-67.688
-0.323,0.288,0.711,-13.000,-6.653,-67.261
-0.297,0.100,0.705,-15.076,-4.578,-62.073
-0.242,-0.159,0.657,-33.875,-4.944,-54.260
-0.208,-0.225,0.704,-49.133,-6.104,-42.053
-0.183,-0.185,0.654,-47.913,-5.981,-30.090
-0.179,-0.227,0.678,-46.021,-6.409,-19.043
-0.178,-0.304,0.754,-39.734,-9.155,-4.456
-0.208,-0.383,0.840,-32.227,-12.939,13.794
-0.226,-0.373,0.943,-25.940,-14.221,34.119
-0.258,-0.165,1.016,-20.935,-13.062,50.781
-0.299,0.164,1.079,-15.137,-9.033,59.998
-0.305,0.326,1.015,-6.348,-2.075,64.270
-0.265,0.258,0.873,-3.113,3.967,70.007
-0.254,0.135,0.775,-10.010,4.639,79.224
-0.281,0.104,0.749,-30.090,4.272,89.050
-0.326,0.200,0.769,-52.795,7.996,94.849
-0.302,0.647,0.816,-49.194,16.479,95.825
-0.361,1.027,0.706,-14.771,26.550,87.646
-0.416,1.033,0.797,-23.254,19.836,74.585
-0.435,1.096,0.731,-7.812,17.944,68.848
-0.500,1.068,0.603,10.803,11.963,61.157
-0.559,0.980,0.638,10.681,3.967,51.758
-0.628,1.038,0.597,16.357,-0.366,41.321
-0.708,1.020,0.617,13.794,-2.930,25.879
-0.749,1.107,0.719,5.310,-2.258,9.644
-0.770,1.223,0.830,6.714,1.282,-8.423
-0.745,1.151,0.790,8.972,3.967,-28.198
-0.663,0.955,0.728,7.202,4.395,-41.870
-0.561,0.794,0.645,5.737,2.869,-47.852

0.130,0.230,0.809,0.122,23.804,36.682
0.148,0.237,0.805,-4.028,23.926,21.851
0.160,0.338,0.734,-5.249,25.391,6.836
0.197,0.345,0.659,-5.432,25.574,-11.719
0.218,0.226,0.620,-4.517,24.841,-30.518
0.202,0.066,0.584,-4.150,22.888,-46.570
0.154,-0.061,0.583,-7.568,20.142,-60.547
0.122,-0.121,0.514,-12.451,18.494,-74.219
0.111,-0.356,0.424,-27.100,14.832,-88.196
0.121,-0.502,0.449,-49.133,9.277,-99.243
0.087,-0.454,0.492,-53.894,6.897,-108.032
0.065,-0.660,0.421,-45.410,2.563,-115.784
0.039,-0.958,0.455,-39.734,-6.958,-117.554
0.030,-1.233,0.422,-17.700,-12.512,-108.276
-0.007,-1.744,0.527,-5.493,-19.592,-93.872
0.465,-1.089,0.791,2.563,6.531,35.645
0.328,-1.124,1.028,-3.906,-12.268,-21.118
-0.220,0.531,0.719,0.488,-8.057,-60.059
-0.167,0.251,0.594,-10.620,-9.949,-64.331
-0.101,-0.078,0.623,-41.504,-12.207,-59.326
-0.040,-0.184,0.566,-56.030,-10.498,-47.302
-0.029,-0.271,0.661,-69.214,-10.681,-37.292
-0.002,-0.203,0.750,-78.857,-9.644,-26.855
-0.058,-0.049,0.823,-62.012,-11.719,-18.127
-0.093,-0.014,0.850,-29.419,-15.320,-6.042
-0.087,-0.282,0.851,0.305,-20.264,11.963
-0.093,-0.443,0.921,7.568,-22.888,35.217
-0.133,-0.233,0.966,16.113,-20.935,56.335
-0.190,0.071,0.945,29.785,-17.761,67.688
-0.219,0.127,0.896,35.522,-13.184,72.571
-0.198,0.010,0.846,33.447,-8.728,79.712
-0.194,-0.073,0.816,28.748,-6.836,89.844
-0.213,-0.027,0.719,26.733,-6.653,100.159
-0.217,0.128,0.638,21.851,-6.531,106.567
-0.255,0.488,0.688,20.386,-5.859,107.300
-0.352,0.774,0.683,22.034,-5.127,101.257
-0.459,0.767,0.773,6.592,-8.301,95.825
-0.470,0.806,0.868,-6.409,-7.751,96.008
-0.541,0.881,0.839,-5.005,-6.104,94.177
-0.406,1.143,0.831,-2.502,8.423,6.592
-0.385,1.299,0.904,-0.977,9.705,-12.207
-0.377,1.292,0.921,8.301,11.292,-29.846
-0.351,1.089,0.915,15.015,11.414,-41.321
-0.311,0.813,0.907,17.639,9.277,-45.349
-0.296,0.562,0.917,16.052,6.348,-45.227
-0.272,0.461,0.893,10.010,6.531,-43.579
-0.322,0.376,0.911,3.479,8.667,-43.457
-0.327,0.376,0.868,3.540,11.719,-44.067
-0.318,0.408,0.803,-0.854,14.221,-48.462
-0.296,0.375,0.804,-10.010,16.479,-52.368
-0.236,0.381,0.688,-14.221,17.456,-51.392
-0.241,0.161,0.710,-25.208,13.611,-50.354
-0.274,0.081,0.803,-33.020,10.132,-44.800
-0.263,0.018,0.771,-23.743,12.329,-37.292
-0.218,-0.204,0.759,-18.372,10.559,-31.006
-0.183,-0.302,0.762,-16.418,6.592,-20.325
-0.161,-0.249,0.718,-13.550,1.709,-7.996
-0.137,-0.227,0.666,-14.221,-2.869,3.357
-0.114,-0.309,0.626,-18.188,-7.690,17.151
-0.122,-0.457,0.615,-21.667,-9.705,37.292
-0.164,-0.467,0.748,-26.428,-10.132,58.899
-0.221,-0.207,0.883,-21.667,-8.789,72.449
-0.270,0.031,0.974,-10.620,-4.883,75.134
-0.241,0.139,0.963,0.061,-0.427,77.087
-0.196,0.227,0.909,9.094,1.648,81.543
-0.199,0.353,0.850,18.188,1.282,85.022
-0.206,0.667,0.889,21.851,1.099,85.999
-0.259,0.974,0.964,20.203,4.089,76.843
-0.310,1.034,0.964,4.150,8.484,64.453
-0.289,1.073,0.987,-11.230,9.521,55.908
-0.256,1.284,0.884,-9.216,9.033,45.532
-0.272,1.325,0.865,-5.066,7.446,28.137
-0.268,1.285,0.831,2.258,5.798,12.146
-0.242,1.211,0.738,10.742,2.686,-1.831
-0.238,1.200,0.754,15.564,-1.221,-14.038
-0.249,1.338,0.761,25.940,-4.456,-30.273
-0.278,1.364,0.743,35.400,-8.179,-50.842
-0.284,1.232,0.738,34.119,-11.963,-66.711
-0.269,1.066,0.756,29.968,-14.709,-74.768
-0.268,0.938,0.790,26.917,-16.785,-81.726
-0.265,0.814,0.802,22.583,-16.907,-89.783
-0.242,0.751,0.827,14.221,-14.282,-97.412
-0.242,0.738,0.815,7.690,-9.888,-103.882
-0.257,0.583,0.755,0.549,-7.019,-107.971
-0.243,0.399,0.806,-10.986,-7.141,-105.530
-0.240,0.346,0.844,-16.357,-6.592,-102.173
-0.274,0.065,0.845,-20.325,-4.395,-100.464
-0.265,-0.294,0.880,-34.607,-3.601,-91.248
-0.232,-0.348,0.860,-37.476,-2.747,-74.524
-0.227,-0.461,0.991,-40.894,-0.122,-61.951
-0.168,-0.372,0.938,-41.321,4.883,-49.866
-0.156,-0.351,0.879,-36.743,7.507,-38.940
-0.110,-0.335,0.793,-36.011,8.057,-24.170
-0.091,-0.362,0.735,-30.701,5.249,-6.958
-0.106,-0.367,0.761,-22.705,2.808,12.573
-0.100,-0.186,0.794,-7.629,2.136,30.090
-0.096,0.072,0.821,14.465,0.854,39.856
-0.106,0.212,0.858,34.302,0.061,44.128
-0.110,0.209,0.905,42.542,-0.793,49.438
-0.092,0.193,0.885,41.199,-2.319,58.655
-0.094,0.257,0.961,35.767,-4.089,67.749
-0.124,0.607,0.995,39.429,-1.953,71.533
-0.183,0.902,1.018,54.688,2.441,67.017
-0.216,1.092,1.013,65.491,5.371,58.716
-0.309,0.830,0.946,59.387,4.333,50.964
-0.218,0.723,1.111,23.010,3.235,49.438
-0.168,1.253,0.961,27.771,7.874,44.495
-0.298,1.224,0.970,30.884,8.362,26.062
-0.263,1.314,0.934,35.522,7.629,12.878
-0.260,1.370,0.858,39.856,6.409,-0.854
-0.292,1.295,0.777,34.058,2.441,-15.076
-0.309,1.223,0.722,21.851,-2.441,-27.954
-0.292,1.201,0.691,6.287,-5.310,-40.222
-0.272,1.114,0.656,-9.216,-7.935,-53.528
-0.274,1.003,0.616,-21.545,-10.315,-65.430
-0.281,0.888,0.595,-31.128,-13.489,-74.402
-0.299,0.763,0.644,-42.297,-15.564,-82.275
-0.315,0.686,0.695,-54.199,-14.832,-90.027
-0.353,0.588,0.763,-65.857,-12.146,-96.741

-0.198,0.010,0.846,33.447,-8.728,79.712
-0.194,-0.073,0.816,28.748,-6.836,89.844
-0.213,-0.027,0.719,26.733,-6.653,100.159
-0.217,0.128,0.638,21.851,-6.531,106.567
-0.255,0.488,0.688,20.386,-5.859,107.300
-0.352,0.774,0.683,22.034,-5.127,101.257
-0.459,0.767,0.773,6.592,-8.301,95.825
-0.470,0.806,0.868,-6.409,-7.751,96.008
-0.541,0.881,0.839,-5.005,-6.104,94.177
-0.406,1.143,0.831,-2.502,8.423,6.592
-0.363,0.879,0.854,4.272,3.357,-34.790
-0.360,0.854,0.854,0.793,0.977,-45.837
-0.376,0.849,0.874,-3.784,0.427,-57.617
-0.366,0.784,0.802,-6.897,1.465,-70.068
-0.339,0.569,0.766,-15.869,-0.427,-80.444
-0.318,0.392,0.849,-30.640,-2.991,-85.388
-0.283,0.488,0.904,-34.424,-1.953,-87.769
-0.277,0.504,0.900,-29.419,-0.427,-96.436
-0.253,0.322,0.974,-28.015,-0.427,-102.783
-0.225,0.152,0.937,-21.973,0.793,-99.609
-0.211,-0.080,0.987,-19.287,-1.343,-94.299
-0.181,-0.229,0.970,-13.000,-1.160,-84.229
-0.136,-0.491,0.786,-9.277,-0.671,-73.059
-0.083,-0.756,0.763,-23.071,-3.784,-57.556
-0.017,-0.758,0.684,-31.494,-2.930,-37.659
-0.006,-0.714,0.676,-46.692,-2.625,-22.156
-0.045,-0.552,0.753,-58.655,-5.859,-7.568
-0.081,-0.411,0.745,-49.561,-6.592,8.362
-0.102,-0.415,0.842,-39.795,-6.958,26.428
-0.100,-0.305,0.880,-24.353,-7.080,44.983
-0.125,-0.160,0.883,-4.395,-8.545,58.228
-0.140,-0.075,0.834,16.846,-9.399,69.458
-0.106,-0.006,0.793,32.837,-10.437,79.529
-0.099,0.206,0.859,47.485,-11.230,87.219
-0.133,0.522,0.896,68.848,-10.742,91.064
-0.197,0.604,0.788,85.022,-11.963,92.896
-0.189,0.579,0.755,67.261,-16.724,95.703
-0.345,0.650,1.016,37.659,-18.616,92.590
-0.365,0.722,1.095,5.432,-9.583,85.999
-0.397,0.860,1.193,-13.550,-5.859,75.989
-0.398,1.182,1.169,-16.174,-1.160,59.998
-0.370,1.233,1.159,-6.470,7.874,39.429
-0.375,1.246,1.142,1.099,11.414,20.996
-0.406,1.309,1.129,7.996,12.817,5.798
-0.394,1.295,1.057,12.695,14.893,-9.521
-0.375,1.177,0.975,11.169,13.672,-23.865
-0.340,1.041,0.906,7.568,11.719,-35.278
-0.307,0.925,0.858,5.554,8.850,-43.335
-0.302,0.792,0.817,5.310,5.371,-51.147
-0.290,0.655,0.746,5.310,2.441,-59.143
-0.275,0.460,0.680,2.380,-0.122,-65.979
-0.267,0.324,0.743,-9.155,-1.953,-70.374
-0.238,0.424,0.762,-16.235,0.305,-75.378
-0.238,0.505,0.780,-18.677,2.563,-86.121
-0.204,0.458,0.816,-24.658,3.906,-95.642
-0.184,0.405,0.851,-26.184,4.883,-98.022
-0.170,0.311,0.893,-20.203,2.930,-97.351
-0.159,0.211,0.976,-10.681,-1.587,-94.971
-0.146,0.103,0.937,5.920,-3.418,-90.393
-0.148,-0.149,0.904,13.794,-6.287,-82.947
-0.135,-0.420,0.861,10.803,-8.240,-69.580
-0.100,-0.570,0.836,-0.122,-7.446,-51.819
-0.060,-0.722,0.628,-13.489,-6.104,-34.302
-0.026,-0.946,0.576,-47.424,-5.676,-15.747
0.017,-0.925,0.495,-70.068,-3.723,6.775
0.013,-0.757,0.445,-78.613,-3.479,25.696
-0.042,-0.490,0.545,-81.726,-5.920,39.185
-0.081,-0.207,0.599,-62.073,-7.324,50.659
-0.120,-0.040,0.679,-38.818,-9.705,60.730
-0.141,0.069,0.770,-15.503,-12.512,69.580
-0.146,0.139,0.833,5.981,-16.479,77.393
-0.168,0.263,0.954,19.958,-20.142,85.205
-0.214,0.490,0.968,37.720,-21.606,93.323
-0.250,0.449,0.996,44.128,-24.719,101.196
-0.219,0.426,0.925,37.964,-27.039,110.840
-0.228,0.578,0.916,35.156,-28.198,115.417
-0.284,0.833,1.131,35.095,-26.611,110.229
-0.418,1.287,0.932,52.002,-22.766,93.201
-0.523,0.537,1.279,0.000,-19.531,71.411
-0.296,0.950,1.198,-33.020,-8.606,70.984
-0.393,1.405,1.267,-15.625,-3.967,53.406
-0.427,1.470,1.123,4.700,4.211,28.564
-0.406,1.323,1.088,13.489,5.554,9.583
-0.398,1.235,1.016,20.203,7.141,-0.671
-0.410,1.152,0.981,22.156,6.775,-10.803
-0.432,1.118,0.961,25.696,6.226,-21.729
-0.431,1.059,0.926,31.067,6.714,-33.569
-0.398,0.928,0.866,33.875,7.202,-45.654
-0.364,0.786,0.846,30.884,7.446,-55.420
-0.323,0.731,0.803,26.611,9.033,-63.049
-0.292,0.593,0.755,19.592,10.498,-71.289
-0.278,0.520,0.768,6.104,10.498,-77.515
-0.242,0.492,0.776,-5.615,12.756,-83.008
-0.212,0.442,0.813,-18.005,14.099,-89.172
-0.190,0.406,0.831,-26.001,15.930,-93.567
-0.143,0.293,0.750,-24.841,17.517,-94.788
-0.148,0.058,0.821,-23.193,14.160,-90.637
-0.132,-0.020,0.862,-11.902,11.536,-80.872
-0.093,-0.170,0.753,2.075,11.230,-72.693
-0.083,-0.494,0.667,-1.221,7.751,-62.256
-0.060,-0.670,0.643,-10.620,5.066,-42.664
-0.014,-0.628,0.632,-20.508,3.967,-21.912
-0.042,-0.480,0.625,-27.283,1.160,-7.568
-0.082,-0.484,0.636,-29.053,-2.686,4.639
-0.078,-0.560,0.666,-31.677,-4.639,22.156
-0.088,-0.480,0.718,-28.992,-7.263,40.039
-0.125,-0.313,0.764,-20.569,-9.644,52.551
-0.149,-0.186,0.781,-7.996,-10.010,61.523
-0.152,-0.126,0.776,3.052,-10.803,70.190
-0.138,-0.059,0.768,10.681,-13.062,79.102
-0.177,0.122,0.847,16.602,-15.076,86.365
-0.234,0.415,0.936,32.898,-14.526,90.332
-0.278,0.442,0.874,50.354,-15.015,92.773
-0.256,0.367,0.902,50.842,-19.226,98.816
-0.288,0.787,0.900,53.101,-22.461,100.464
-0.515,1.044,1.265,42.908,-20.020,87.036
-0.469,0.859,1.083,17.822,-8.484,72.754
-0.432,0.503,1.271,-29.480,-11.414,65.735
-0.420,1.025,1.181,-35.278,-5.920,61.340

-0.283,0.488,0.904,-34.424,-1.953,-87.769
-0.277,0.504,0.900,-29.419,-0.427,-96.436
-0.253,0.322,0.974,-28.015,-0.427,-102.783
-0.225,0.152,0.937,-21.973,0.793,-99.609
-0.211,-0.080,0.987,-19.287,-1.343,-94.299
-0.181,-0.229,0.970,-13.000,-1.160,-84.229
-0.136,-0.491,0.786,-9.277,-0.671,-73.059
-0.083,-0.756,0.763,-23.071,-3.784,-57.556
-0.017,-0.758,0.684,-31.494,-2.930,-37.659
-0.006,-0.714,0.676,-46.692,-2.625,-22.156
-0.045,-0.552,0.753,-58.655,-5.859,-7.568
-0.081,-0.411,0.745,-49.561,-6.592,8.362
-0.102,-0.415,0.842,-39.795,-6.958,26.428
-0.100,-0.305,0.880,-24.353,-7.080,44.983
-0.125,-0.160,0.883,-4.395,-8.545,58.228
-0.140,-0.075,0.834,16.846,-9.399,69.458
-0.106,-0.006,0.793,32.837,-10.437,79.529
-0.099,0.206,0.859,47.485,-11.230,87.219
-0.133,0.522,0.896,68.848,-10.742,91.064
-0.197,0.604,0.788,85.022,-11.963,92.896
-0.189,0.579,0.755,67.261,-16.724,95.703
-0.345,0.650,1.016,37.659,-18.616,92.590
-0.365,0.722,1.095,5.432,-9.583,85.999
-0.397,0.860,1.193,-13.550,-5.859,75.989
0.011,-0.554,0.594,-18.066,-2.808,7.690
-0.023,-0.526,0.601,-21.851,-5.249,20.813
-0.036,-0.466,0.637,-25.452,-6.714,36.072
-0.055,-0.271,0.711,-20.142,-7.751,50.598
-0.093,-0.113,0.756,-8.362,-9.583,60.425
-0.121,-0.061,0.795,0.305,-12.268,68.787
-0.124,-0.023,0.813,6.226,-14.893,77.820
-0.142,0.078,0.895,7.812,-17.456,85.632
-0.204,0.324,1.018,11.353,-16.846,90.637
-0.232,0.552,1.021,26.062,-14.099,92.834
-0.247,0.608,1.031,41.138,-13.428,94.238
-0.237,0.637,0.921,55.176,-15.686,96.436
-0.234,0.622,1.046,52.002,-19.531,95.825
-0.279,0.789,0.820,49.622,-19.348,90.698
-0.408,0.474,1.180,-1.587,-19.470,80.017
-0.287,0.927,1.139,-21.729,-6.531,76.538
-0.364,1.122,1.098,-17.578,-0.244,58.105
-0.362,1.101,1.022,-17.212,4.150,41.138
-0.330,1.203,0.966,-6.592,5.554,29.785
-0.324,1.205,0.933,3.357,5.127,16.541
-0.331,1.136,0.896,7.263,4.395,4.089
-0.332,1.113,0.883,9.033,2.563,-5.615
-0.334,1.037,0.909,7.202,0.427,-16.846
-0.307,0.971,0.921,2.991,-0.732,-30.273
-0.287,0.937,0.908,0.732,-0.854,-43.884
-0.261,0.875,0.857,0.671,-0.732,-57.373
-0.229,0.772,0.816,-1.038,-1.404,-69.153
-0.174,0.660,0.689,-1.282,-3.845,-77.942
-0.166,0.478,0.737,-6.958,-8.484,-83.679
-0.158,0.457,0.765,-12.451,-9.827,-85.266
-0.153,0.459,0.839,-15.198,-9.827,-89.294
-0.163,0.409,0.829,-17.944,-9.399,-94.666
-0.158,0.269,0.947,-18.066,-8.667,-95.764
-0.121,0.082,0.907,-8.789,-7.263,-90.759
-0.144,-0.182,0.892,-3.784,-9.460,-81.665
-0.133,-0.356,0.860,3.906,-11.658,-67.200
-0.088,-0.530,0.866,6.409,-11.169,-53.223
-0.055,-0.602,0.804,3.540,-9.521,-38.391
-0.052,-0.620,0.744,-1.587,-9.033,-22.156
-0.059,-0.689,0.701,-12.512,-9.216,-4.517
-0.057,-0.643,0.705,-24.841,-11.108,14.526
-0.071,-0.460,0.741,-27.527,-12.451,31.799
-0.094,-0.274,0.754,-20.996,-11.414,44.739
-0.113,-0.159,0.768,-13.794,-10.315,54.688
-0.130,-0.104,0.768,-5.798,-11.108,64.087
-0.140,-0.055,0.771,1.709,-12.573,73.792
-0.152,0.053,0.755,10.254,-14.343,82.520
-0.179,0.260,0.853,17.883,-16.357,88.074
-0.215,0.501,0.810,33.630,-15.381,89.539
-0.252,0.564,0.923,34.424,-17.273,89.417
-0.266,0.858,0.941,44.617,-16.907,89.966
-0.338,0.580,0.917,34.180,-17.761,85.754
-0.322,0.665,1.128,-9.033,-17.029,88.623
-0.348,1.190,1.243,-3.357,-8.728,80.505
-0.405,1.171,1.162,2.319,-1.953,58.777
-0.384,1.081,1.111,2.686,0.732,44.189
-0.387,1.035,0.987,6.653,1.526,32.471
-0.381,0.935,0.895,-0.732,2.319,21.118
-0.384,1.022,0.925,-5.249,2.014,9.521
-0.393,1.194,0.971,0.671,5.615,-5.432
-0.391,1.239,0.950,10.132,8.545,-23.376
-0.350,1.167,0.936,13.794,8.484,-40.039
-0.297,1.044,0.916,14.465,6.531,-52.612
-0.269,0.885,0.892,13.306,3.967,-61.218
-0.246,0.716,0.815,11.292,1.343,-67.810
-0.229,0.552,0.813,9.460,-1.709,-73.608
-0.206,0.453,0.795,9.705,-2.502,-77.698
-0.171,0.375,0.814,5.127,-2.319,-81.482
-0.170,0.386,0.884,3.540,-1.160,-84.717
-0.147,0.361,0.813,3.906,0.916,-88.623
-0.156,0.136,0.899,-0.122,-0.183,-90.454
-0.158,0.003,0.946,1.831,0.549,-84.839
-0.148,-0.145,0.894,7.141,1.892,-77.209
-0.158,-0.404,0.842,5.127,0.061,-66.772
-0.123,-0.538,0.841,3.052,-1.221,-51.758
-0.096,-0.565,0.801,3.540,0.488,-37.598
-0.085,-0.537,0.741,-2.136,1.160,-24.414
-0.079,-0.502,0.680,-12.146,-0.610,-10.315
-0.090,-0.471,0.667,-19.836,-3.906,4.822
-0.105,-0.464,0.665,-22.461,-7.202,21.240
-0.121,-0.411,0.681,-22.034,-8.850,37.354
-0.147,-0.291,0.707,-17.212,-10.010,50.415
-0.168,-0.172,0.719,-6.287,-10.803,60.852
-0.173,-0.068,0.715,7.080,-12.451,69.336
-0.191,0.044,0.716,19.592,-14.893,76.416
-0.230,0.213,0.841,28.259,-17.090,82.336
-0.251,0.487,0.807,39.734,-16.541,85.144
-0.335,0.538,0.971,31.677,-17.395,83.069
-0.325,0.697,1.034,22.217,-12.390,82.703
-0.330,0.506,0.953,6.653,-10.925,81.360
-0.369,0.629,1.112,-28.381,-11.230,82.886
-0.343,1.005,1.173,-28.809,-2.869,75.317
-0.347,0.980,1.080,-22.339,2.197,57.922
-0.335,0.999,1.050,-9.216,2.197,45.471
-0.328,0.996,0.956,0.793,2.502,34.973

-0.197,0.604,0.788,85.022,-11.963,92.896
-0.189,0.579,0.755,67.261,-16.724,95.703
-0.345,0.650,1.016,37.659,-18.616,92.590
-0.365,0.722,1.095,5.432,-9.583,85.999
-0.397,0.860,1.193,-13.550,-5.859,75.989
0.011,-0.554,0.594,-18.066,-2.808,7.690
-0.023,-0.526,0.601,-21.851,-5.249,20.813
-0.036,-0.466,0.637,-25.452,-6.714,36.072
-0.055,-0.271,0.711,-20.142,-7.751,50.598
-0.093,-0.113,0.756,-8.362,-9.583,60.425
-0.121,-0.061,0.795,0.305,-12.268,68.787
-0.124,-0.023,0.813,6.226,-14.893,77.820
-0.142,0.078,0.895,7.812,-17.456,85.632
-0.204,0.324,1.018,11.353,-16.846,90.637
-0.232,0.552,1.021,26.062,-14.099,92.834
-0.247,0.608,1.031,41.138,-13.428,94.238
-0.237,0.637,0.921,55.176,-15.686,96.436
-0.234,0.622,1.046,52.002,-19.531,95.825
-0.279,0.789,0.820,49.622,-19.348,90.698
-0.408,0.474,1.180,-1.587,-19.470,80.017
-0.287,0.927,1.139,-21.729,-6.531,76.538
-0.155,-0.375,0.741,-11.963,-0.549,-52.551
-0.129,-0.486,0.746,-22.034,-3.662,-36.377
-0.095,-0.460,0.689,-20.996,-3.601,-19.104
-0.094,-0.415,0.646,-21.179,-5.432,-5.493
-0.126,-0.443,0.690,-17.578,-6.531,6.592
-0.160,-0.395,0.737,-8.667,-6.653,21.606
-0.180,-0.315,0.809,4.150,-7.935,35.583
-0.214,-0.216,0.896,13.977,-8.972,46.997
-0.250,-0.108,0.913,25.513,-8.118,56.946
-0.236,-0.021,0.896,37.292,-7.507,65.735
-0.192,0.076,0.858,47.119,-8.057,73.059
-0.173,0.237,0.839,56.274,-9.583,78.186
-0.187,0.341,0.836,60.486,-11.963,80.933
-0.200,0.474,0.830,59.814,-14.648,84.229
-0.244,0.460,0.845,50.659,-17.273,85.754
-0.280,0.331,0.993,22.888,-17.212,86.731
-0.291,0.486,1.033,-0.244,-14.648,88.318
-0.285,0.754,1.108,-5.310,-9.766,84.961
-0.277,1.023,1.160,4.639,-3.540,72.693
-0.337,1.121,1.092,20.325,0.610,53.833
-0.305,1.013,1.071,24.658,2.197,39.185
-0.242,1.012,1.060,20.752,2.563,30.457
-0.187,1.088,0.952,18.188,3.662,20.020
-0.159,1.110,0.909,15.686,2.625,6.409
-0.142,1.118,0.918,12.634,2.625,-7.080
-0.129,1.078,0.921,8.118,2.686,-19.775
-0.117,0.997,0.898,3.113,1.465,-31.738
-0.116,0.903,0.904,-2.930,-0.549,-42.908
-0.122,0.853,0.908,-6.531,-1.648,-53.894
-0.118,0.762,0.833,-5.981,-1.709,-64.392
-0.119,0.501,0.799,-13.000,-3.662,-72.937
-0.156,0.307,0.835,-26.001,-5.249,-75.867
-0.165,0.304,0.965,-32.166,-2.686,-75.378
-0.126,0.360,0.925,-30.151,1.343,-79.773
-0.182,0.136,0.964,-21.423,2.258,-84.961
-0.170,-0.002,0.880,-9.277,4.456,-79.346
-0.133,-0.193,0.848,1.160,2.380,-71.228
-0.118,-0.372,0.814,1.160,-0.549,-60.547
-0.118,-0.482,0.721,-7.263,-2.441,-48.340
-0.145,-0.560,0.668,-23.865,-5.859,-34.119
-0.136,-0.534,0.710,-40.649,-6.897,-17.029
-0.163,-0.391,0.738,-37.842,-6.409,-2.441
-0.214,-0.326,0.775,-25.818,-6.775,8.301
-0.243,-0.319,0.827,-7.690,-7.568,20.447
-0.252,-0.278,0.861,9.888,-9.460,33.508
-0.255,-0.216,0.853,25.269,-11.230,45.044
-0.258,-0.194,0.817,35.339,-13.062,54.932
-0.260,-0.178,0.803,39.307,-15.015,64.270
-0.265,-0.043,0.835,36.621,-15.320,72.449
-0.281,0.184,0.915,29.236,-13.306,76.782
-0.303,0.308,0.871,21.851,-9.644,78.003
-0.317,0.229,0.825,5.310,-10.254,81.299
-0.286,0.360,0.887,-11.719,-11.963,87.036
-0.297,0.565,0.954,-15.381,-10.010,84.778
-0.275,0.774,0.965,-14.038,-7.446,79.468
-0.348,0.842,1.106,-9.521,-5.920,70.862
-0.363,0.858,1.017,-0.793,-2.686,63.171
-0.290,0.728,0.995,-0.977,-3.479,58.899
-0.258,0.822,1.039,-7.629,-2.747,55.664
-0.276,1.026,1.032,-8.179,3.296,48.889
-0.273,1.095,1.001,-6.897,7.935,38.757
-0.260,1.011,0.941,-10.864,10.193,27.710
-0.248,1.013,0.893,-19.775,10.925,17.334
-0.239,1.103,0.874,-25.269,12.024,4.272
-0.228,1.154,0.841,-28.259,12.329,-12.146
-0.228,1.139,0.804,-30.640,10.742,-29.236
-0.229,1.029,0.788,-33.630,7.935,-44.800
-0.212,0.883,0.747,-35.583,4.700,-56.702
-0.212,0.713,0.784,-38.391,-0.061,-65.857
-0.223,0.615,0.857,-42.358,-2.625,-72.693
-0.214,0.548,0.881,-45.776,-2.014,-78.918
-0.184,0.404,0.817,-44.128,-1.404,-83.313
-0.221,0.146,0.944,-44.250,-3.784,-83.252
-0.187,0.108,0.947,-32.898,-1.953,-76.233
-0.193,0.018,0.958,-21.851,-1.831,-73.853
-0.198,-0.042,0.990,-14.954,-0.427,-70.984
-0.179,-0.125,0.935,-6.104,3.723,-64.453
-0.172,-0.241,0.942,-4.150,4.272,-55.847
-0.147,-0.286,0.911,-3.662,6.226,-45.654
-0.140,-0.333,0.858,-5.554,7.751,-35.522
-0.125,-0.379,0.729,-12.817,6.531,-24.597
-0.113,-0.417,0.659,-25.330,2.380,-11.902
-0.088,-0.387,0.596,-31.860,-2.136,3.845
-0.062,-0.317,0.534,-28.137,-6.531,19.775
-0.060,-0.279,0.535,-16.663,-11.658,33.447
-0.091,-0.211,0.603,-1.892,-17.517,45.532
-0.126,-0.122,0.665,16.418,-22.339,55.115
-0.134,-0.067,0.716,30.151,-26.489,63.293
-0.129,0.045,0.797,36.133,-28.625,71.777
-0.138,0.312,0.930,45.044,-28.809,79.041
-0.200,0.550,0.944,62.378,-26.611,82.336
-0.230,0.617,1.040,62.805,-25.818,83.740
-0.214,0.861,1.060,60.120,-23.315,83.008
-0.328,0.529,1.144,31.860,-20.203,78.064
-0.306,0.733,1.303,-10.742,-13.550,79.712
-0.315,1.168,1.240,-9.583,-3.967,68.726
-0.322,1.120,1.160,-11.475,2.869,49.988
-0.287,1.177,1.089,-3.723,5.432,36.926

-0.204,0.324,1.018,11.353,-16.846,90.637
-0.232,0.552,1.021,26.062,-14.099,92.834
-0.247,0.608,1.031,41.138,-13.428,94.238
-0.237,0.637,0.921,55.176,-15.686,96.436
-0.234,0.622,1.046,52.002,-19.531,95.825
-0.279,0.789,0.820,49.622,-19.348,90.698
-0.408,0.474,1.180,-1.587,-19.470,80.017
-0.287,0.927,1.139,-21.729,-6.531,76.538
-0.155,-0.375,0.741,-11.963,-0.549,-52.551
-0.129,-0.486,0.746,-22.034,-3.662,-36.377
-0.095,-0.460,0.689,-20.996,-3.601,-19.104
-0.094,-0.415,0.646,-21.179,-5.432,-5.493
-0.126,-0.443,0.690,-17.578,-6.531,6.592
-0.160,-0.395,0.737,-8.667,-6.653,21.606
-0.180,-0.315,0.809,4.150,-7.935,35.583
-0.214,-0.216,0.896,13.977,-8.972,46.997
-0.250,-0.108,0.913,25.513,-8.118,56.946
-0.236,-0.021,0.896,37.292,-7.507,65.735
-0.192,0.076,0.858,47.119,-8.057,73.059
-0.173,0.237,0.839,56.274,-9.583,78.186
-0.187,0.341,0.836,60.486,-11.963,80.933
-0.200,0.474,0.830,59.814,-14.648,84.229
-0.244,0.460,0.845,50.659,-17.273,85.754
-0.280,0.331,0.993,22.888,-17.212,86.731
-0.291,0.486,1.033,-0.244,-14.648,88.318
-0.285,0.754,1.108,-5.310,-9.766,84.961
-0.277,1.023,1.160,4.639,-3.540,72.693
-0.061,-0.455,0.536,-27.466,-18.250,12.512
-0.066,-0.286,0.517,-29.297,-19.897,26.428
-0.090,-0.164,0.544,-25.757,-22.522,37.292
-0.126,-0.051,0.609,-15.808,-26.672,46.082
-0.164,0.037,0.701,-2.258,-30.212,54.321
-0.177,0.102,0.767,10.315,-33.813,61.584
-0.190,0.156,0.815,16.357,-36.438,68.359
-0.184,0.376,0.887,17.578,-36.194,73.364
-0.220,0.629,1.005,22.888,-33.386,73.120
-0.285,0.763,1.119,15.076,-26.184,70.068
-0.310,0.777,1.100,3.052,-19.104,67.139
-0.280,0.749,1.150,-16.602,-14.587,65.552
-0.289,0.906,1.160,-21.667,-10.010,60.547
-0.269,1.058,1.121,-14.038,-4.395,49.622
-0.287,1.058,1.074,-7.324,-0.427,37.231
-0.293,1.000,0.997,-6.897,2.686,25.574
-0.275,1.006,0.906,-7.080,5.493,17.639
-0.282,1.065,0.885,-7.629,6.592,8.118
-0.291,1.147,0.906,-4.211,8.179,-2.869
-0.286,1.155,0.901,1.465,9.949,-14.893
-0.253,1.064,0.886,3.845,10.681,-26.245
-0.217,0.959,0.872,4.089,9.949,-35.645
-0.200,0.879,0.867,4.822,9.216,-44.006
-0.183,0.783,0.798,5.432,8.545,-52.673
-0.177,0.606,0.783,2.808,6.836,-60.486
-0.184,0.512,0.857,-2.563,5.737,-65.369
-0.185,0.500,0.921,-5.310,7.263,-70.007
-0.179,0.393,0.891,-7.263,9.155,-75.684
-0.170,0.235,0.957,-14.160,9.705,-78.369
-0.142,0.146,0.962,-15.137,11.902,-76.660
-0.099,0.085,0.931,-12.146,12.024,-73.730
-0.052,-0.082,0.772,-5.554,10.681,-69.275
-0.078,-0.260,0.818,-8.911,6.836,-59.448
-0.081,-0.271,0.781,0.000,5.371,-43.091
-0.090,-0.367,0.697,8.301,2.441,-28.992
-0.119,-0.541,0.673,3.540,-2.258,-14.038
-0.140,-0.583,0.685,-3.662,-5.493,4.333
-0.147,-0.567,0.672,-7.263,-7.202,20.203
-0.151,-0.519,0.712,-13.794,-7.446,32.959
-0.173,-0.371,0.754,-15.259,-7.019,43.152
-0.197,-0.190,0.799,-11.597,-6.592,50.964
-0.201,-0.039,0.801,-2.686,-6.409,58.044
-0.180,0.023,0.766,6.714,-7.935,65.552
-0.168,0.057,0.774,13.733,-11.719,73.914
-0.173,0.214,0.788,26.306,-16.357,81.055
-0.205,0.331,0.862,38.452,-19.470,84.534
-0.208,0.452,0.908,45.837,-19.836,87.402
-0.230,0.573,0.953,47.729,-18.921,88.379
-0.228,0.769,0.964,33.936,-18.677,84.351
-0.345,0.752,1.189,10.742,-15.137,74.707
-0.272,0.856,1.228,-1.404,-6.104,68.909
-0.302,0.908,1.086,4.150,-5.798,60.242
-0.356,0.743,1.099,-9.583,-5.920,51.208
-0.299,0.958,1.114,-15.991,-1.099,43.640
-0.310,1.245,1.042,0.000,4.395,27.954
-0.330,1.233,0.949,11.108,7.080,8.423
-0.326,1.143,0.956,11.963,5.737,-6.714
-0.314,1.050,0.968,9.338,5.432,-17.517
-0.279,0.982,0.956,5.798,4.639,-27.344
-0.232,0.925,0.893,4.395,4.272,-37.170
-0.199,0.823,0.811,4.211,3.723,-47.607
-0.184,0.717,0.795,0.366,2.258,-57.922
-0.176,0.611,0.734,-2.563,1.709,-67.871
-0.175,0.487,0.732,-9.338,0.305,-76.416
-0.184,0.444,0.819,-15.869,-0.122,-83.130
-0.198,0.543,0.939,-19.348,1.892,-89.478
-0.166,0.596,0.959,-14.465,5.737,-96.008
-0.172,0.329,0.921,-16.907,5.981,-99.304
-0.154,0.186,1.088,-24.963,4.761,-91.187
-0.077,0.247,0.999,-6.287,6.592,-83.313
-0.103,-0.029,0.865,5.005,5.432,-81.543
-0.119,-0.348,0.835,0.000,2.747,-69.641
-0.060,-0.491,0.749,-2.563,5.371,-50.049
-0.033,-0.529,0.571,-5.432,5.371,-35.889
-0.068,-0.575,0.537,-17.578,1.343,-23.376
-0.089,-0.568,0.523,-30.945,-1.770,-9.338
-0.118,-0.530,0.547,-38.086,-4.639,3.174
-0.129,-0.470,0.634,-39.856,-8.179,16.357
-0.135,-0.378,0.717,-31.494,-11.963,29.236
-0.153,-0.276,0.807,-17.578,-16.174,41.260
-0.171,-0.156,0.883,1.709,-18.799,52.307
-0.185,-0.053,0.941,27.222,-22.217,62.500
-0.187,0.042,0.953,53.833,-26.306,72.205
-0.189,0.192,0.976,78.064,-29.968,80.688
-0.189,0.273,0.872,97.717,-33.691,86.121
-0.294,0.261,0.923,89.600,-37.109,91.431
-0.230,0.357,0.840,66.833,-35.461,97.961
-0.254,0.591,0.965,36.438,-34.485,95.398
-0.437,0.658,1.108,-2.747,-25.085,83.801
-0.339,0.436,1.160,-64.026,-13.916,75.806
-0.326,0.913,1.184,-74.036,-8.789,73.486
-0.382,0.929,1.118,-52.368,-3.479,60.364

-0.192,0.076,0.858,47.119,-8.057,73.059
-0.173,0.237,0.839,56.274,-9.583,78.186
-0.187,0.341,0.836,60.486,-11.963,80.933
-0.200,0.474,0.830,59.814,-14.648,84.229
-0.244,0.460,0.845,50.659,-17.273,85.754
-0.280,0.331,0.993,22.888,-17.212,86.731
-0.291,0.486,1.033,-0.244,-14.648,88.318
-0.285,0.754,1.108,-5.310,-9.766,84.961
-0.277,1.023,1.160,4.639,-3.540,72.693
-0.061,-0.455,0.536,-27.466,-18.250,12.512
-0.066,-0.286,0.517,-29.297,-19.897,26.428
-0.090,-0.164,0.544,-25.757,-22.522,37.292
-0.126,-0.051,0.609,-15.808,-26.672,46.082
-0.164,0.037,0.701,-2.258,-30.212,54.321
-0.177,0.102,0.767,10.315,-33.813,61.584
-0.190,0.156,0.815,16.357,-36.438,68.359
-0.184,0.376,0.887,17.578,-36.194,73.364
-0.220,0.629,1.005,22.888,-33.386,73.120
-0.285,0.763,1.119,15.076,-26.184,70.068
-0.310,0.777,1.100,3.052,-19.104,67.139
-0.280,0.749,1.150,-16.602,-14.587,65.552
-0.289,0.906,1.160,-21.667,-10.010,60.547
-0.145,0.229,0.835,-21.545,0.854,-61.584
-0.126,0.021,0.807,-22.278,-0.916,-55.725
-0.135,-0.117,0.839,-25.024,-1.709,-45.227
-0.125,-0.132,0.785,-15.747,-0.366,-32.104
-0.101,-0.230,0.664,-12.512,-0.122,-21.118
-0.081,-0.320,0.633,-19.897,-2.747,-8.484
-0.083,-0.281,0.604,-19.775,-5.310,7.874
-0.099,-0.272,0.587,-18.066,-5.554,24.109
-0.120,-0.269,0.623,-20.264,-6.836,37.048
-0.139,-0.174,0.651,-16.602,-8.972,48.279
-0.156,-0.069,0.671,-13.306,-9.277,57.617
-0.168,0.034,0.703,-13.000,-8.728,65.430
-0.166,0.173,0.750,-14.954,-7.385,72.083
-0.180,0.365,0.837,-13.245,-6.287,76.233
-0.192,0.604,0.879,1.465,-6.042,78.735
-0.171,0.752,0.880,18.188,-6.409,79.224
-0.194,0.917,1.036,30.029,-8.301,77.271
-0.200,1.094,0.995,53.528,-8.362,73.669
-0.280,0.817,0.993,46.753,-10.010,68.604
-0.280,0.771,1.092,9.583,-10.681,66.956
-0.286,1.088,1.070,5.310,-5.066,57.373
-0.292,1.144,1.003,2.258,2.136,40.955
-0.252,1.169,0.940,-0.061,6.042,27.649
-0.240,1.257,0.831,3.784,8.240,14.587
-0.247,1.209,0.782,0.793,6.836,0.000
-0.233,1.148,0.858,-7.996,5.737,-11.719
-0.231,1.155,0.860,-4.700,6.470,-23.010
-0.218,1.056,0.820,1.892,5.554,-34.973
-0.192,0.931,0.815,3.235,3.357,-43.518
-0.185,0.875,0.800,4.883,1.221,-49.194
-0.191,0.808,0.724,8.484,-1.526,-54.932
-0.189,0.588,0.679,4.639,-4.578,-59.753
-0.193,0.454,0.726,-6.775,-6.470,-60.181
-0.203,0.522,0.835,-14.587,-5.371,-61.890
-0.188,0.568,0.806,-15.808,-1.587,-69.336
-0.165,0.473,0.831,-20.691,0.061,-75.623
-0.137,0.390,0.817,-23.132,0.671,-76.172
-0.136,0.308,0.867,-24.841,-0.366,-75.317
-0.125,0.187,0.839,-20.447,-0.671,-71.960
-0.149,0.002,0.901,-16.968,-1.465,-64.331
-0.122,-0.125,0.922,-10.803,-1.343,-52.856
-0.078,-0.267,0.825,-4.089,1.221,-40.649
-0.066,-0.344,0.768,-6.226,1.160,-26.917
-0.062,-0.335,0.651,-9.766,-0.183,-10.925
-0.057,-0.282,0.643,-18.494,-2.502,4.578
-0.061,-0.214,0.612,-19.775,-4.578,19.653
-0.080,-0.201,0.641,-20.264,-5.920,33.875
-0.105,-0.128,0.686,-15.442,-7.507,46.387
-0.134,-0.059,0.718,-8.057,-8.911,55.359
-0.163,0.021,0.766,-3.052,-9.033,62.866
-0.197,0.168,0.863,3.845,-7.568,69.458
-0.237,0.356,0.925,17.151,-5.310,74.036
-0.252,0.550,0.891,38.025,-4.028,77.881
-0.229,0.712,0.828,60.547,-5.615,79.468
-0.216,0.821,0.923,74.707,-8.179,78.491
-0.240,1.036,0.955,92.468,-9.216,75.378
-0.287,0.825,0.896,85.815,-9.705,68.787
-0.318,0.619,1.004,37.720,-10.864,66.101
-0.319,0.936,1.112,5.310,-5.981,60.608
-0.293,1.192,1.002,1.160,3.479,42.969
-0.252,1.187,0.909,-3.174,9.155,25.391
-0.206,1.212,0.820,1.526,10.376,13.672
-0.225,1.181,0.810,4.883,8.240,1.953
-0.235,1.121,0.845,4.089,5.615,-10.071
-0.224,1.093,0.869,3.906,4.578,-21.790
-0.224,1.060,0.882,5.127,4.089,-33.203
-0.216,0.955,0.874,5.127,3.479,-44.434
-0.207,0.859,0.849,2.869,2.563,-53.101
-0.199,0.775,0.806,-1.465,1.587,-59.937
-0.185,0.648,0.743,-6.287,0.000,-65.674
-0.175,0.519,0.763,-15.747,-1.526,-69.275
-0.185,0.531,0.832,-22.095,-1.160,-72.021
-0.162,0.557,0.748,-22.522,0.244,-77.881
-0.131,0.397,0.834,-27.649,-0.671,-83.374
-0.110,0.281,0.829,-26.611,-0.916,-81.604
-0.139,0.165,0.832,-20.325,-3.296,-77.698
-0.148,0.012,0.912,-19.043,-5.249,-70.923
-0.103,-0.081,0.863,-9.705,-5.127,-60.364
-0.098,-0.198,0.848,-5.188,-6.897,-50.476
-0.087,-0.253,0.787,-4.639,-7.690,-38.635
-0.081,-0.286,0.739,-8.057,-9.033,-26.428
-0.102,-0.286,0.731,-17.639,-10.193,-12.573
-0.096,-0.220,0.734,-26.184,-11.108,1.282
-0.095,-0.192,0.705,-26.611,-12.207,13.977
-0.120,-0.196,0.723,-27.344,-12.756,27.466
-0.134,-0.117,0.732,-24.170,-12.634,40.222
-0.138,-0.040,0.740,-18.066,-11.230,50.537
-0.144,0.023,0.727,-14.160,-10.071,59.021
-0.148,0.105,0.736,-11.292,-9.277,66.589
-0.146,0.236,0.765,-7.446,-8.240,72.937
-0.164,0.396,0.835,-1.282,-6.897,78.369
-0.194,0.532,0.823,8.301,-6.104,83.374
-0.196,0.515,0.774,10.010,-7.263,87.463
-0.130,0.911,0.899,16.174,-6.775,88.318
-0.319,1.367,1.005,49.011,-1.648,75.195
-0.376,1.023,1.049,25.757,3.540,57.312
-0.254,0.866,0.900,6.165,5.127,55.542

-0.126,-0.051,0.609,-15.808,-26.672,46.082
-0.164,0.037,0.701,-2.258,-30.212,54.321
-0.177,0.102,0.767,10.315,-33.813,61.584
-0.190,0.156,0.815,16.357,-36.438,68.359
-0.184,0.376,0.887,17.578,-36.194,73.364
-0.220,0.629,1.005,22.888,-33.386,73.120
-0.285,0.763,1.119,15.076,-26.184,70.068
-0.310,0.777,1.100,3.052,-19.104,67.139
-0.280,0.749,1.150,-16.602,-14.587,65.552
-0.289,0.906,1.160,-21.667,-10.010,60.547
-0.145,0.229,0.835,-21.545,0.854,-61.584
-0.126,0.021,0.807,-22.278,-0.916,-55.725
-0.135,-0.117,0.839,-25.024,-1.709,-45.227
-0.125,-0.132,0.785,-15.747,-0.366,-32.104
-0.101,-0.230,0.664,-12.512,-0.122,-21.118
-0.081,-0.320,0.633,-19.897,-2.747,-8.484
-0.083,-0.281,0.604,-19.775,-5.310,7.874
-0.099,-0.272,0.587,-18.066,-5.554,24.109
-0.120,-0.269,0.623,-20.264,-6.836,37.048
-0.139,-0.174,0.651,-16.602,-8.972,48.279
-0.156,-0.069,0.671,-13.306,-9.277,57.617
-0.168,0.034,0.703,-13.000,-8.728,65.430
-0.166,0.173,0.750,-14.954,-7.385,72.083
-0.180,0.365,0.837,-13.245,-6.287,76.233
-0.192,0.604,0.879,1.465,-6.042,78.735
-0.171,0.752,0.880,18.188,-6.409,79.224
-0.194,0.917,1.036,30.029,-8.301,77.271
-0.200,1.094,0.995,53.528,-8.362,73.669
-0.063,-0.048,0.656,-19.958,3.906,0.183
-0.065,-0.013,0.616,-19.470,0.549,11.292
-0.077,-0.046,0.615,-14.648,-2.441,23.193
-0.089,-0.077,0.642,-7.751,-6.958,35.522
-0.112,-0.076,0.685,-0.427,-10.864,46.631
-0.136,-0.073,0.731,5.493,-12.939,56.152
-0.162,-0.040,0.789,9.460,-13.306,64.514
-0.182,0.058,0.813,15.686,-12.268,71.533
-0.203,0.262,0.842,26.306,-11.047,76.843
-0.217,0.521,0.875,40.710,-9.216,78.735
-0.255,0.840,0.867,53.528,-7.629,75.806
-0.346,0.839,1.073,41.504,-4.944,70.007
-0.234,0.809,0.971,18.738,1.221,70.007
-0.257,0.685,0.959,-1.831,-1.404,70.557
-0.245,0.807,0.980,-20.813,-1.221,67.871
-0.224,1.016,0.915,-12.939,2.258,57.678
-0.224,1.094,0.890,-5.432,4.944,43.335
-0.230,1.087,0.839,3.113,5.798,31.250
-0.222,1.082,0.816,7.202,3.967,22.217
-0.251,1.049,0.818,7.874,1.343,13.794
-0.280,1.013,0.857,1.404,-0.610,4.272
-0.271,1.057,0.903,-5.127,0.854,-6.165
-0.236,1.132,0.881,-6.104,3.418,-19.409
-0.204,1.094,0.822,-6.287,3.967,-32.654
-0.177,0.984,0.759,-11.475,2.502,-42.786
-0.165,0.850,0.730,-17.151,-0.427,-50.171
-0.154,0.791,0.740,-20.325,-3.235,-56.213
-0.154,0.786,0.761,-17.700,-5.005,-62.866
-0.159,0.704,0.777,-17.395,-5.737,-70.984
-0.125,0.594,0.810,-23.315,-6.897,-77.393
-0.113,0.605,0.862,-27.527,-7.629,-81.360
-0.125,0.601,0.941,-29.785,-6.714,-86.304
-0.111,0.553,0.903,-20.264,-5.737,-88.806
-0.080,0.238,0.803,-11.841,-8.240,-86.914
-0.074,-0.128,0.867,-12.512,-12.695,-75.256
-0.097,-0.229,0.896,-6.104,-13.672,-57.800
-0.087,-0.304,0.873,-1.831,-12.390,-47.302
-0.077,-0.311,0.877,-7.019,-9.766,-38.452
-0.082,-0.233,0.799,-6.775,-5.188,-25.879
-0.097,-0.189,0.764,-8.484,-4.150,-13.062
-0.111,-0.169,0.729,-8.606,-5.981,-0.427
-0.118,-0.209,0.717,-7.324,-7.874,13.672
-0.118,-0.189,0.734,-7.507,-9.460,28.259
-0.133,-0.079,0.750,-0.061,-10.071,40.466
-0.150,0.010,0.763,10.498,-9.705,49.133
-0.165,0.053,0.754,19.958,-9.888,57.190
-0.158,0.100,0.768,28.015,-10.254,65.430
-0.159,0.226,0.789,38.391,-10.498,72.998
-0.186,0.334,0.757,49.561,-10.986,78.918
-0.195,0.422,0.774,48.706,-11.597,84.717
-0.191,0.716,0.892,40.649,-9.338,85.999
-0.286,1.167,0.984,44.800,-4.761,76.599
-0.314,0.921,1.053,18.494,2.075,63.538
-0.228,0.707,0.965,-14.526,4.211,63.049
-0.220,0.804,0.917,-33.997,2.869,62.622
-0.219,0.981,0.904,-36.255,6.531,51.270
-0.214,1.244,0.867,-19.714,10.071,34.790
-0.222,1.296,0.778,3.662,11.841,17.700
-0.213,1.149,0.735,8.362,7.751,6.104
-0.189,1.023,0.707,7.202,2.502,1.526
-0.205,1.004,0.765,4.944,-2.625,-4.211
-0.247,1.045,0.817,3.845,-4.272,-14.282
-0.262,1.083,0.853,3.235,-3.723,-28.015
-0.259,1.080,0.853,1.404,-1.953,-42.114
-0.237,1.015,0.814,-1.587,-0.793,-53.955
-0.199,0.921,0.766,-6.104,-1.404,-62.866
-0.176,0.821,0.743,-9.827,-3.296,-70.557
-0.131,0.681,0.719,-15.015,-5.371,-77.332
-0.105,0.653,0.752,-22.339,-8.179,-82.642
-0.123,0.655,0.846,-26.917,-8.606,-89.478
-0.120,0.635,0.882,-24.109,-7.690,-95.032
-0.085,0.352,0.777,-15.625,-8.484,-96.130
-0.105,-0.009,0.905,-19.287,-13.550,-87.341
-0.066,-0.081,0.847,-8.179,-13.794,-71.045
-0.027,-0.248,0.865,-6.653,-13.855,-62.866
-0.026,-0.331,0.841,-12.207,-13.000,-53.833
-0.053,-0.329,0.802,-8.362,-9.216,-39.001
-0.096,-0.368,0.798,-9.521,-8.667,-23.071
-0.101,-0.402,0.789,-10.803,-9.094,-8.118
-0.123,-0.376,0.761,-9.888,-9.399,6.165
-0.155,-0.346,0.797,-9.705,-10.498,21.545
-0.171,-0.216,0.847,-5.737,-9.460,36.560
-0.185,-0.032,0.868,4.272,-7.385,47.485
-0.204,0.116,0.842,12.634,-5.676,55.176
-0.196,0.157,0.787,16.846,-4.761,63.049
-0.177,0.184,0.774,18.127,-4.761,72.083
-0.179,0.308,0.763,25.574,-5.310,80.750
-0.203,0.317,0.704,34.851,-6.104,86.975
-0.193,0.207,0.640,30.823,-7.629,94.727
-0.178,0.150,0.567,17.639,-10.132,104.187
-0.157,0.579,0.612,9.827,-14.343,108.887

-0.171,0.752,0.880,18.188,-6.409,79.224
-0.194,0.917,1.036,30.029,-8.301,77.271
-0.200,1.094,0.995,53.528,-8.362,73.669
-0.063,-0.048,0.656,-19.958,3.906,0.183
-0.065,-0.013,0.616,-19.470,0.549,11.292
-0.077,-0.046,0.615,-14.648,-2.441,23.193
-0.089,-0.077,0.642,-7.751,-6.958,35.522
-0.112,-0.076,0.685,-0.427,-10.864,46.631
-0.136,-0.073,0.731,5.493,-12.939,56.152
-0.162,-0.040,0.789,9.460,-13.306,64.514
-0.182,0.058,0.813,15.686,-12.268,71.533
-0.203,0.262,0.842,26.306,-11.047,76.843
-0.217,0.521,0.875,40.710,-9.216,78.735
-0.255,0.840,0.867,53.528,-7.629,75.806
-0.346,0.839,1.073,41.504,-4.944,70.007
-0.147,0.459,0.826,-27.588,-5.310,-64.087
-0.126,0.490,0.830,-25.391,-3.296,-66.956
-0.110,0.492,0.844,-18.066,-2.869,-68.970
-0.107,0.415,0.773,-6.836,-3.662,-67.017
-0.100,0.184,0.741,-4.028,-6.836,-61.890
-0.122,-0.019,0.814,-6.897,-9.277,-51.147
-0.096,-0.111,0.800,-4.272,-8.484,-37.842
-0.055,-0.215,0.736,-5.310,-7.446,-28.503
-0.035,-0.231,0.704,-12.085,-6.897,-18.311
-0.037,-0.137,0.654,-14.038,-6.531,-6.714
-0.058,-0.062,0.639,-17.761,-8.057,4.517
-0.078,-0.005,0.629,-19.470,-10.315,15.808
-0.105,0.038,0.666,-16.724,-12.085,27.039
-0.125,0.120,0.685,-9.460,-13.733,37.231
-0.141,0.177,0.709,-1.404,-14.404,45.654
-0.148,0.215,0.732,5.676,-14.832,52.917
-0.166,0.250,0.764,12.268,-14.709,60.059
-0.185,0.361,0.832,17.517,-13.733,66.223
-0.200,0.557,0.839,28.137,-11.597,70.313
-0.216,0.693,0.858,37.842,-10.010,70.862
-0.218,0.915,0.961,50.537,-8.728,69.214
-0.239,0.941,0.832,74.341,-8.728,63.965
-0.283,0.656,0.881,65.247,-12.939,60.364
-0.287,0.762,0.919,47.852,-10.925,59.509
-0.338,0.974,1.017,30.945,-5.737,48.340
-0.358,1.255,1.093,9.766,2.380,30.029
-0.303,1.373,0.975,1.953,10.742,8.850
-0.257,1.188,0.917,-14.771,12.146,-5.615
-0.222,1.154,0.886,-24.292,12.512,-11.902
-0.201,1.135,0.864,-18.433,10.986,-21.606
-0.197,1.015,0.825,-8.789,8.057,-32.776
-0.188,0.881,0.814,0.549,5.737,-41.260
-0.178,0.760,0.773,6.470,3.174,-46.692
-0.185,0.676,0.755,6.958,-0.610,-50.171
-0.187,0.559,0.737,4.883,-3.296,-52.856
-0.184,0.413,0.730,-6.714,-4.395,-53.833
-0.186,0.354,0.786,-20.569,-4.944,-53.711
-0.199,0.410,0.807,-29.175,-3.113,-55.359
-0.164,0.423,0.872,-35.950,-1.099,-60.242
-0.123,0.462,0.835,-30.640,1.770,-62.439
-0.125,0.390,0.803,-21.545,0.427,-61.829
-0.120,0.229,0.819,-19.775,-2.075,-57.312
-0.123,0.082,0.880,-16.724,-3.723,-48.645
-0.121,0.029,0.892,-9.094,-4.395,-38.452
-0.085,-0.065,0.830,-3.174,-2.686,-31.006
-0.064,-0.131,0.783,-7.263,-1.709,-22.095
-0.041,-0.093,0.694,-12.329,-1.160,-10.315
-0.035,-0.059,0.681,-19.653,-2.930,0.854
-0.052,0.033,0.642,-20.020,-4.578,13.245
-0.072,0.066,0.632,-17.090,-5.310,24.109
-0.084,0.088,0.628,-12.268,-7.202,33.508
-0.102,0.117,0.655,-5.859,-9.399,42.358
-0.127,0.142,0.676,0.854,-10.925,49.500
-0.141,0.155,0.684,7.996,-11.841,56.091
-0.149,0.170,0.718,10.803,-12.878,62.988
-0.151,0.320,0.785,14.893,-13.000,68.726
-0.164,0.557,0.772,32.166,-11.597,71.350
-0.199,0.702,0.834,45.959,-11.780,71.960
-0.194,0.966,0.936,64.331,-11.658,72.144
-0.240,0.931,0.837,88.135,-13.062,68.420
-0.257,0.835,0.849,85.693,-18.555,66.467
-0.330,0.859,1.040,77.087,-18.005,61.096
-0.354,1.036,1.124,61.584,-10.803,48.401
-0.348,1.144,1.094,46.326,-3.540,31.616
-0.356,1.092,1.006,18.555,0.122,15.076
-0.286,1.120,0.943,-7.385,4.211,2.319
-0.198,1.177,0.848,-18.066,8.240,-10.315
-0.148,1.204,0.789,-15.137,10.010,-24.353
-0.129,1.128,0.745,-2.014,10.010,-36.377
-0.113,0.992,0.762,10.925,6.775,-45.288
-0.118,0.899,0.805,19.897,0.793,-52.246
-0.145,0.800,0.812,26.611,-3.906,-57.800
-0.148,0.647,0.775,25.574,-6.836,-60.974
-0.150,0.477,0.734,18.127,-9.094,-61.157
-0.178,0.418,0.779,4.333,-11.353,-60.669
-0.187,0.424,0.790,-5.981,-10.498,-63.660
-0.183,0.402,0.818,-16.602,-7.812,-69.946
-0.174,0.428,0.875,-20.142,-6.104,-75.073
-0.155,0.400,0.831,-13.062,-4.456,-78.613
-0.156,0.357,0.918,-6.592,-5.554,-78.979
-0.142,0.242,0.850,1.160,-5.249,-76.965
-0.151,0.052,0.918,-4.333,-7.568,-71.960
-0.150,-0.129,0.868,-7.446,-6.714,-62.073
-0.118,-0.340,0.922,-15.137,-6.653,-50.049
-0.066,-0.446,0.808,-19.104,-3.784,-34.546
-0.054,-0.485,0.710,-27.222,-1.648,-19.165
-0.060,-0.373,0.654,-37.659,-2.014,-4.578
-0.073,-0.197,0.666,-39.917,-3.052,7.568
-0.110,-0.083,0.661,-29.236,-2.380,19.531
-0.165,-0.140,0.728,-23.315,-2.930,33.020
-0.185,-0.164,0.778,-20.508,-4.272,48.096
-0.192,-0.113,0.791,-15.686,-4.761,60.852
-0.193,-0.049,0.761,-9.033,-3.662,69.946
-0.192,0.005,0.713,-3.174,-2.747,77.576
-0.197,0.098,0.753,0.244,-2.136,85.510
-0.215,0.331,0.790,9.827,-2.502,91.492
-0.263,0.459,0.726,19.104,-5.127,93.933
-0.291,0.454,0.793,11.536,-8.545,97.168
-0.287,0.771,0.936,17.883,-9.521,99.548
-0.347,1.120,0.920,47.668,-11.169,92.102
-0.416,1.160,0.826,56.091,-13.428,78.552
-0.467,0.815,1.213,21.423,-14.221,65.369
-0.403,1.343,1.275,4.333,-2.930,57.312
-0.384,1.504,1.128,18.494,6.165,35.339

-0.110,0.492,0.844,-18.066,-2.869,-68.970
-0.107,0.415,0.773,-6.836,-3.662,-67.017
-0.100,0.184,0.741,-4.028,-6.836,-61.890
-0.122,-0.019,0.814,-6.897,-9.277,-51.147
-0.096,-0.111,0.800,-4.272,-8.484,-37.842
-0.055,-0.215,0.736,-5.310,-7.446,-28.503
-0.035,-0.231,0.704,-12.085,-6.897,-18.311
-0.037,-0.137,0.654,-14.038,-6.531,-6.714
-0.058,-0.062,0.639,-17.761,-8.057,4.517
-0.078,-0.005,0.629,-19.470,-10.315,15.808
-0.105,0.038,0.666,-16.724,-12.085,27.039
-0.125,0.120,0.685,-9.460,-13.733,37.231
-0.141,0.177,0.709,-1.404,-14.404,45.654
-0.148,0.215,0.732,5.676,-14.832,52.917
-0.166,0.250,0.764,12.268,-14.709,60.059
-0.185,0.361,0.832,17.517,-13.733,66.223
-0.200,0.557,0.839,28.137,-11.597,70.313
-0.216,0.693,0.858,37.842,-10.010,70.862
-0.218,0.915,0.961,50.537,-8.728,69.214
-0.239,0.941,0.832,74.341,-8.728,63.965
-0.283,0.656,0.881,65.247,-12.939,60.364
-0.287,0.762,0.919,47.852,-10.925,59.509
-0.338,0.974,1.017,30.945,-5.737,48.340
-0.158,-0.218,0.867,-6.958,-6.287,-34.485
-0.100,-0.409,0.854,-13.794,-1.526,-23.010
-0.052,-0.335,0.766,-21.301,3.662,-10.315
-0.064,-0.194,0.703,-29.419,4.150,-0.183
-0.083,-0.023,0.639,-32.104,3.113,10.254
-0.097,0.089,0.622,-31.799,1.099,20.813
-0.113,0.139,0.629,-26.489,-1.343,32.227
-0.128,0.201,0.674,-19.897,-4.822,43.152
-0.144,0.214,0.672,-6.592,-7.935,51.453
-0.147,0.145,0.704,2.441,-11.047,59.082
-0.147,0.151,0.729,10.742,-12.695,67.017
-0.142,0.258,0.713,20.752,-13.367,73.608
-0.163,0.370,0.781,27.283,-13.062,77.637
-0.186,0.710,0.858,40.955,-10.132,79.285
-0.208,0.942,0.823,65.247,-7.202,74.829
-0.240,0.955,0.927,56.335,-7.263,68.604
-0.305,1.083,0.925,39.734,-6.714,61.768
-0.347,0.849,1.018,4.272,-5.310,50.720
-0.256,1.065,0.993,-11.597,-0.916,45.593
-0.295,1.341,0.896,4.700,2.625,31.311
-0.313,1.218,0.767,10.376,3.418,13.000
-0.269,1.018,0.756,1.648,0.671,3.296
-0.230,1.063,0.837,-1.465,-0.244,-3.296
-0.250,1.200,0.838,5.981,0.732,-14.832
-0.261,1.139,0.828,10.742,0.977,-29.419
-0.245,0.948,0.839,5.432,0.916,-40.222
-0.225,0.838,0.824,2.686,0.488,-45.837
-0.236,0.770,0.787,1.831,-0.610,-50.293
-0.247,0.686,0.776,-0.916,-1.160,-55.420
-0.232,0.597,0.759,-6.409,-0.793,-60.059
-0.228,0.509,0.745,-13.672,-0.793,-63.965
-0.208,0.468,0.791,-25.146,-1.343,-66.833
-0.180,0.547,0.851,-31.921,-0.793,-71.045
-0.169,0.592,0.884,-34.851,1.465,-77.759
-0.156,0.546,0.879,-28.503,1.648,-80.933
-0.135,0.338,0.786,-17.029,-1.221,-77.454
-0.115,-0.005,0.851,-19.775,-6.104,-67.505
-0.137,-0.094,0.908,-14.832,-8.301,-51.575
-0.112,-0.192,0.842,-7.263,-8.057,-40.710
-0.068,-0.258,0.890,-14.038,-6.470,-31.494
-0.031,-0.196,0.765,-12.024,-2.014,-19.958
-0.056,-0.171,0.713,-14.709,-1.770,-8.667
-0.076,-0.101,0.703,-18.677,-3.784,3.296
-0.078,-0.080,0.670,-14.893,-5.371,14.771
-0.095,-0.100,0.697,-10.620,-7.996,27.161
-0.119,-0.040,0.719,-2.319,-9.888,39.795
-0.144,0.027,0.726,9.338,-11.169,49.744
-0.154,0.047,0.721,16.113,-11.780,58.105
-0.163,0.087,0.720,19.226,-12.024,65.735
-0.177,0.175,0.764,21.545,-12.268,72.632
-0.202,0.383,0.768,30.334,-11.780,78.125
-0.235,0.449,0.750,38.086,-12.085,81.299
-0.228,0.632,0.880,40.894,-12.146,84.717
-0.244,0.862,0.853,68.115,-11.841,83.557
-0.293,0.797,0.939,69.946,-13.672,79.041
-0.304,1.080,1.004,60.913,-12.451,73.669
-0.415,1.118,1.069,41.443,-6.958,58.777
-0.388,0.926,1.101,-1.343,0.854,45.837
-0.297,1.218,0.989,-16.418,5.310,38.391
-0.310,1.339,0.872,-13.184,8.545,20.813
-0.285,1.212,0.838,-20.569,9.949,3.052
-0.232,1.200,0.882,-20.203,10.254,-8.789
-0.211,1.225,0.889,-12.756,10.010,-21.301
-0.197,1.164,0.849,-2.075,8.484,-34.546
-0.183,1.011,0.822,2.808,5.615,-44.617
-0.163,0.880,0.794,5.981,2.930,-50.354
-0.167,0.777,0.786,6.897,0.488,-53.772
-0.179,0.679,0.776,1.831,-1.160,-57.068
-0.185,0.551,0.784,-7.263,-0.793,-60.486
-0.187,0.495,0.782,-19.226,0.122,-63.293
-0.163,0.459,0.795,-29.419,1.343,-67.444
-0.135,0.485,0.894,-41.504,3.723,-73.059
-0.115,0.628,0.865,-39.978,8.667,-78.186
-0.099,0.599,0.841,-29.541,9.277,-82.886
-0.086,0.442,0.767,-21.667,6.348,-81.116
-0.072,0.184,0.759,-19.897,2.197,-74.097
-0.119,0.136,0.872,-15.747,-2.258,-63.110
-0.106,0.154,0.818,-0.854,-1.526,-56.458
-0.091,-0.016,0.836,-1.770,-0.916,-54.199
-0.084,-0.100,0.800,-7.996,0.488,-45.532
-0.089,-0.074,0.792,-12.573,1.465,-34.058
-0.082,-0.011,0.692,-10.559,2.075,-24.597
-0.071,-0.051,0.666,-9.033,-0.916,-16.418
-0.079,-0.105,0.637,-6.958,-3.967,-4.578
-0.094,-0.158,0.657,-6.897,-6.714,9.888
-0.100,-0.239,0.648,-6.531,-10.498,24.536
-0.119,-0.246,0.697,-6.592,-14.038,38.513
-0.148,-0.112,0.723,2.441,-14.099,49.561
-0.183,0.024,0.741,14.404,-12.695,57.190
-0.203,0.142,0.764,20.447,-10.986,62.927
-0.209,0.295,0.807,25.818,-9.460,67.627
-0.228,0.434,0.858,30.518,-9.216,71.045
-0.229,0.490,0.832,31.433,-9.583,74.768
-0.238,0.462,0.843,24.841,-11.108,78.857
-0.229,0.596,0.820,20.081,-12.573,81.787
-0.216,0.828,0.930,23.926,-11.169,78.552

-0.107,0.415,0.773,-6.836,-3.662,-67.017
-0.100,0.184,0.741,-4.028,-6.836,-61.890
-0.122,-0.019,0.814,-6.897,-9.277,-51.147
-0.096,-0.111,0.800,-4.272,-8.484,-37.842
-0.055,-0.215,0.736,-5.310,-7.446,-28.503
-0.035,-0.231,0.704,-12.085,-6.897,-18.311
-0.037,-0.137,0.654,-14.038,-6.531,-6.714
-0.058,-0.062,0.639,-17.761,-8.057,4.517
-0.078,-0.005,0.629,-19.470,-10.315,15.808
-0.105,0.038,0.666,-16.724,-12.085,27.039
-0.125,0.120,0.685,-9.460,-13.733,37.231
-0.141,0.177,0.709,-1.404,-14.404,45.654
-0.148,0.215,0.732,5.676,-14.832,52.917
-0.166,0.250,0.764,12.268,-14.709,60.059
-0.185,0.361,0.832,17.517,-13.733,66.223
-0.200,0.557,0.839,28.137,-11.597,70.313
-0.216,0.693,0.858,37.842,-10.010,70.862
-0.218,0.915,0.961,50.537,-8.728,69.214
-0.239,0.941,0.832,74.341,-8.728,63.965
-0.283,0.656,0.881,65.247,-12.939,60.364
-0.287,0.762,0.919,47.852,-10.925,59.509
-0.338,0.974,1.017,30.945,-5.737,48.340
-0.158,-0.218,0.867,-6.958,-6.287,-34.485
-0.100,-0.409,0.854,-13.794,-1.526,-23.010
-0.052,-0.335,0.766,-21.301,3.662,-10.315
-0.064,-0.194,0.703,-29.419,4.150,-0.183
-0.083,-0.023,0.639,-32.104,3.113,10.254
-0.097,0.089,0.622,-31.799,1.099,20.813
-0.113,0.139,0.629,-26.489,-1.343,32.227
-0.128,0.201,0.674,-19.897,-4.822,43.152
-0.144,0.214,0.672,-6.592,-7.935,51.453
-0.147,0.145,0.704,2.441,-11.047,59.082
-0.147,0.151,0.729,10.742,-12.695,67.017
-0.142,0.258,0.713,20.752,-13.367,73.608
-0.163,0.370,0.781,27.283,-13.062,77.637
-0.186,0.710,0.858,40.955,-10.132,79.285
-0.208,0.942,0.823,65.247,-7.202,74.829
-0.240,0.955,0.927,56.335,-7.263,68.604
-0.305,1.083,0.925,39.734,-6.714,61.768
-0.241,1.336,1.069,-13.000,9.827,37.659
-0.249,1.357,0.907,2.502,15.381,15.442
-0.247,1.146,0.844,2.319,13.733,0.732
-0.237,1.073,0.858,-1.404,11.292,-6.470
-0.216,1.073,0.867,-0.793,9.705,-16.296
-0.226,1.126,0.910,4.517,8.362,-31.250
-0.225,1.117,0.894,8.789,9.521,-47.913
-0.178,0.967,0.790,6.348,10.193,-61.218
-0.132,0.708,0.719,-5.493,6.897,-67.871
-0.121,0.594,0.727,-20.325,3.296,-69.458
-0.110,0.508,0.725,-27.405,2.747,-71.533
-0.095,0.445,0.777,-39.368,1.770,-77.332
-0.077,0.548,0.809,-41.748,3.845,-82.764
-0.041,0.545,0.736,-34.912,5.493,-88.257
-0.015,0.432,0.749,-32.288,1.709,-89.600
-0.024,0.343,0.672,-19.043,-2.136,-83.923
-0.036,0.060,0.679,-11.230,-7.812,-73.486
-0.046,-0.107,0.696,-6.165,-13.000,-59.265
-0.047,-0.237,0.694,3.357,-14.343,-46.753
-0.058,-0.325,0.694,4.272,-15.564,-35.645
-0.080,-0.368,0.663,-1.953,-15.686,-24.231
-0.094,-0.411,0.637,-10.193,-17.395,-10.864
-0.079,-0.385,0.590,-4.639,-15.320,5.859
-0.089,-0.346,0.606,-9.888,-17.883,21.790
-0.095,-0.267,0.636,-7.568,-17.700,36.804
-0.090,-0.184,0.652,-1.282,-16.907,49.866
-0.091,-0.125,0.663,8.301,-17.273,60.669
-0.099,-0.122,0.663,17.822,-18.677,71.167
-0.109,-0.125,0.693,22.278,-20.508,82.642
-0.117,0.020,0.760,26.306,-21.179,93.750
-0.124,0.170,0.739,36.438,-21.606,101.379
-0.138,0.164,0.705,32.410,-23.315,108.582
-0.157,0.226,0.840,17.395,-23.315,118.469
-0.178,0.744,0.846,22.705,-20.508,123.596
-0.282,1.137,0.932,39.856,-19.714,114.441
-0.396,1.275,1.301,7.874,-10.132,100.281
-0.463,1.326,1.289,-2.258,0.488,87.280
-0.386,1.158,1.214,-36.316,-0.183,73.547
-0.401,1.297,1.256,-41.199,2.747,63.965
-0.406,1.463,1.056,-23.254,9.033,47.424
-0.371,1.349,0.920,-12.756,12.634,25.452
-0.374,1.312,1.029,-14.343,11.841,5.920
-0.347,1.583,1.047,-7.568,14.832,-11.841
-0.323,1.543,0.988,-0.305,17.639,-33.813
-0.256,1.343,0.943,-8.423,15.015,-51.453
-0.206,1.190,0.896,-8.423,12.817,-61.768
-0.184,0.974,0.797,-13.977,8.789,-70.923
-0.172,0.811,0.860,-27.832,6.653,-77.881
-0.149,0.798,0.850,-36.072,8.728,-85.083
-0.140,0.698,0.811,-41.382,9.094,-95.459
-0.130,0.528,0.879,-51.208,9.521,-101.318
-0.096,0.545,0.993,-59.204,11.475,-103.088
-0.057,0.754,0.947,-45.715,14.771,-107.117
-0.036,0.611,0.800,-28.137,13.000,-114.441
-0.057,0.382,0.813,-20.935,7.080,-113.770
-0.036,0.210,0.701,-5.554,4.272,-103.943
-0.084,-0.038,0.751,-3.662,-1.038,-94.788
-0.066,-0.081,0.730,10.559,-4.150,-81.055
-0.037,-0.265,0.631,24.597,-4.700,-71.838
-0.041,-0.499,0.643,19.226,-7.263,-61.340
-0.031,-0.489,0.635,17.883,-6.897,-44.617
-0.046,-0.477,0.566,16.663,-6.165,-31.372
-0.062,-0.531,0.509,10.254,-7.874,-17.517
-0.064,-0.556,0.507,9.827,-11.353,0.549
-0.076,-0.514,0.553,15.686,-14.160,18.799
-0.105,-0.453,0.593,28.625,-17.639,35.706
-0.105,-0.366,0.641,43.945,-20.142,51.208
-0.109,-0.307,0.680,58.777,-23.743,64.697
-0.121,-0.252,0.690,69.641,-27.588,78.308
-0.141,-0.129,0.775,75.012,-30.640,90.515
-0.163,0.063,0.782,89.661,-32.593,99.854
-0.166,-0.058,0.701,93.018,-37.842,108.643
-0.096,-0.062,0.740,71.167,-44.006,121.155
-0.158,0.455,0.965,54.749,-42.725,128.357
-0.314,0.887,0.849,54.321,-37.048,124.207
-0.472,0.868,1.359,-1.892,-26.917,115.417
-0.439,1.228,1.338,-14.587,-13.123,111.023
-0.433,1.185,1.327,-27.588,-12.817,101.929
-0.396,1.126,1.591,-81.909,-6.470,90.637
-0.341,1.600,1.386,-78.125,9.338,75.562

-0.147,0.145,0.704,2.441,-11.047,59.082
-0.147,0.151,0.729,10.742,-12.695,67.017
-0.142,0.258,0.713,20.752,-13.367,73.608
-0.163,0.370,0.781,27.283,-13.062,77.637
-0.186,0.710,0.858,40.955,-10.132,79.285
-0.208,0.942,0.823,65.247,-7.202,74.829
-0.240,0.955,0.927,56.335,-7.263,68.604
-0.305,1.083,0.925,39.734,-6.714,61.768
-0.241,1.336,1.069,-13.000,9.827,37.659
-0.097,1.146,0.826,-24.170,2.930,-3.418
-0.102,1.126,0.817,-17.456,1.648,-17.517
-0.109,0.966,0.805,-9.583,-1.953,-27.100
-0.092,0.799,0.790,-2.869,-6.897,-29.724
-0.091,0.644,0.808,2.808,-11.902,-30.701
-0.113,0.549,0.846,8.545,-16.785,-32.532
-0.104,0.477,0.845,13.062,-18.433,-35.461
-0.109,0.399,0.883,13.184,-18.860,-38.208
-0.091,0.414,0.875,16.357,-15.869,-39.429
-0.059,0.346,0.737,24.780,-12.573,-38.879
-0.062,0.245,0.771,23.132,-13.977,-35.950
-0.051,0.246,0.723,27.771,-12.756,-28.748
-0.037,0.257,0.584,28.931,-13.184,-22.522
-0.083,0.131,0.734,18.066,-18.982,-17.456
-0.084,0.104,0.560,21.362,-19.775,-6.897
-0.073,0.073,0.580,8.240,-21.606,4.517
-0.081,0.105,0.559,-4.456,-23.315,14.771
-0.103,0.127,0.618,-13.306,-23.315,22.827
-0.105,0.219,0.679,-19.775,-20.569,30.029
-0.092,0.271,0.704,-21.729,-17.639,33.081
-0.090,0.246,0.725,-26.550,-15.625,34.790
-0.089,0.244,0.765,-28.137,-14.160,39.368
-0.095,0.339,0.799,-21.606,-12.634,44.373
-0.125,0.469,0.820,-10.254,-10.864,47.852
-0.155,0.592,0.863,-0.793,-8.972,49.805
-0.153,0.775,0.922,11.047,-6.287,50.415
-0.152,0.954,0.916,29.846,-5.066,47.546
-0.182,1.004,0.945,40.100,-6.287,42.297
-0.191,1.012,0.935,39.185,-6.104,37.659
-0.231,1.031,0.948,31.311,-6.531,31.189
-0.294,1.002,1.004,17.517,-5.249,22.705
-0.316,0.915,0.999,-1.465,-1.160,14.282
-0.291,0.897,0.975,-17.761,2.380,5.615
-0.254,0.961,0.931,-27.527,5.676,-4.211
-0.260,0.999,0.954,-25.696,9.216,-15.869
-0.218,1.049,0.796,-8.423,13.550,-26.306
-0.228,0.890,0.827,-3.845,12.207,-36.011
-0.197,0.797,0.781,-1.221,8.179,-40.527
-0.180,0.712,0.798,2.686,5.188,-42.603
-0.172,0.701,0.790,5.371,3.662,-44.434
-0.173,0.544,0.767,2.686,2.502,-47.485
-0.168,0.433,0.762,-6.287,1.770,-48.523
-0.164,0.409,0.792,-12.573,2.747,-48.523
-0.139,0.404,0.830,-19.043,4.761,-50.842
-0.121,0.398,0.835,-21.545,8.423,-52.551
-0.090,0.377,0.822,-17.517,10.742,-53.101
-0.053,0.280,0.817,-10.925,10.498,-51.575
-0.030,0.165,0.750,-2.991,10.254,-46.509
-0.035,0.003,0.704,-2.502,7.812,-39.185
-0.017,-0.041,0.694,-8.484,5.005,-28.687
0.009,0.068,0.648,-11.780,1.953,-18.250
0.028,0.121,0.565,-11.597,-1.709,-10.315
0.018,0.075,0.549,-10.620,-5.493,-1.038
0.011,0.044,0.549,-5.859,-7.935,12.634
-0.007,-0.022,0.561,-1.343,-10.559,24.780
-0.040,-0.071,0.588,-5.005,-13.062,35.767
-0.064,-0.010,0.615,-10.620,-14.160,46.143
-0.068,0.070,0.625,-13.794,-13.916,54.016
-0.067,0.149,0.670,-14.587,-13.306,59.204
-0.099,0.290,0.780,-9.827,-13.550,63.354
-0.140,0.544,0.924,2.625,-12.207,66.162
-0.164,0.792,1.010,21.606,-9.094,66.040
-0.203,0.904,1.071,40.649,-8.118,64.026
-0.207,1.002,0.902,65.369,-10.193,64.026
-0.313,0.921,1.062,62.256,-15.625,60.669
-0.374,1.165,1.272,40.649,-7.385,52.185
-0.359,1.308,1.207,32.532,3.357,32.776
-0.333,1.156,1.112,14.587,6.470,14.160
