aX,aY,aZ,gX,gY,gZ
0.023,0.607,0.876,-176.025,-1.709,-44.067
0.023,0.660,0.832,-184.204,-2.136,-50.842
0.022,0.732,0.820,-200.989,-0.671,-57.922
0.040,0.800,0.782,-208.313,2.136,-62.744
-0.156,0.992,1.026,-206.055,2.686,-68.237
0.127,0.945,0.475,-179.321,3.235,-63.721
0.092,0.832,0.828,-202.637,1.648,-67.810
0.060,0.825,0.826,-210.327,7.080,-70.801
0.003,0.790,0.840,-203.430,9.094,-68.970
0.016,0.725,0.817,-201.294,9.949,-70.862
0.065,0.655,0.760,-198.059,10.254,-73.608
0.101,0.679,0.675,-186.096,9.338,-75.867
0.092,0.760,0.573,-172.607,7.935,-77.209
0.080,0.812,0.488,-160.950,7.080,-77.759
0.086,0.857,0.360,-154.419,5.493,-78.125
0.115,0.871,0.317,-152.039,3.113,-78.735
0.100,0.897,0.323,-146.240,0.977,-78.796
0.066,0.874,0.370,-139.221,-0.061,-78.613
0.054,0.841,0.406,-132.202,-1.221,-76.843
0.044,0.839,0.410,-121.704,-2.930,-73.914
0.029,0.836,0.374,-111.206,-5.615,-71.899
0.021,0.841,0.279,-104.919,-9.094,-69.946
0.033,0.891,0.132,-99.426,-16.052,-67.749
0.060,0.958,-0.008,-95.459,-23.987,-67.383
0.083,0.980,-0.104,-90.698,-33.203,-68.115
0.107,0.984,-0.198,-81.116,-43.274,-67.078
0.118,0.955,-0.243,-70.679,-53.406,-65.002
0.117,0.883,-0.248,-61.951,-63.782,-62.988
0.108,0.829,-0.209,-51.514,-74.158,-60.486
0.104,0.793,-0.185,-46.936,-83.008,-58.899
0.104,0.786,-0.181,-44.434,-91.003,-58.716
0.120,0.764,-0.134,-42.603,-98.145,-58.960
0.159,0.746,-0.081,-40.894,-105.347,-58.044
0.175,0.797,-0.018,-30.945,-113.220,-55.847
0.233,0.550,0.379,-28.015,-119.995,-52.551
0.247,0.913,0.320,-7.812,-113.403,-45.715
0.086,0.534,0.911,2.747,-94.299,-46.509
0.038,0.343,1.490,-10.559,-74.158,-38.025
-0.001,0.501,1.709,-9.888,-46.448,-27.832
-0.072,0.536,1.932,-9.216,-24.109,-27.283
0.043,0.825,1.849,12.329,-12.878,-26.062
0.174,0.883,1.537,23.804,-2.991,-30.640
0.265,0.776,1.448,16.602,9.155,-34.607
0.369,0.720,1.320,15.259,21.118,-31.372
0.454,0.714,1.161,9.827,32.593,-27.283
0.520,0.788,0.943,4.456,41.016,-23.499
0.478,0.785,0.909,-6.409,44.922,-20.813
0.453,0.710,0.955,-20.569,47.546,-18.066
0.475,0.791,0.818,-21.179,50.781,-16.724
0.499,0.887,0.647,-14.038,56.335,-19.836
0.429,1.004,0.502,0.244,61.096,-22.949
0.364,0.981,0.528,-10.559,65.186,-23.926
0.263,0.960,0.533,-9.583,69.824,-25.696
0.177,1.244,0.199,7.935,73.853,-27.710
-0.100,0.821,0.548,0.366,79.773,-35.400
-0.082,0.685,0.733,-4.272,86.548,-29.602
0.224,0.705,0.287,9.521,87.463,-22.461
0.384,0.817,-0.180,9.155,88.440,-24.414
0.317,1.012,-0.262,2.258,87.585,-28.564
0.284,0.969,-0.268,4.944,82.947,-30.212
0.299,0.919,-0.589,26.245,67.871,-27.710
0.254,0.898,-0.730,25.269,51.819,-26.978
0.207,0.927,-0.892,33.081,32.898,-24.292
0.181,0.830,-0.998,41.504,8.850,-22.644
0.229,0.632,-0.784,46.509,-16.052,-18.677
0.413,0.606,-0.906,63.599,-37.476,-11.414
0.357,0.648,-0.797,71.655,-58.960,-10.193
0.325,0.750,-0.718,64.941,-79.163,-10.376
0.264,0.825,-0.697,57.617,-98.938,-8.545
0.225,0.775,-0.624,45.288,-116.882,-6.348
0.263,0.564,-0.229,28.564,-132.446,-2.869
0.357,0.760,0.075,32.104,-137.390,2.930
0.206,0.736,0.262,32.654,-126.282,-1.160
0.165,0.592,0.424,18.250,-132.935,-0.366
0.249,0.562,0.956,7.812,-142.456,4.395
0.339,0.943,1.161,7.629,-125.793,2.686
0.230,0.701,1.854,-24.231,-90.271,-7.202
0.211,0.724,2.135,-20.874,-70.313,-5.066
0.342,0.903,2.011,24.719,-48.096,-4.150
0.395,0.788,1.926,31.799,-28.076,-10.132
0.430,0.674,1.840,34.180,-6.226,-13.062
0.405,0.682,1.503,35.645,14.282,-14.526
0.352,0.788,1.239,34.302,27.527,-15.137
0.260,0.838,1.399,36.438,39.673,-12.329
0.323,0.724,1.298,36.926,53.589,-10.498
0.415,0.626,1.197,26.917,64.514,-9.888
0.495,0.651,1.106,8.850,75.256,-10.864
0.531,0.453,1.192,-7.812,87.769,-14.648
0.601,0.894,0.740,-1.221,99.182,-14.221
0.276,0.792,0.618,-1.770,104.614,-23.254
0.127,0.495,1.003,-44.617,111.145,-26.733
0.300,0.541,0.714,-32.776,115.845,-17.090
0.485,0.725,0.071,-32.654,122.803,-18.433
0.275,0.805,0.032,-33.875,124.146,-24.109
0.195,0.758,-0.198,-19.958,121.887,-22.400
0.189,1.000,-0.828,1.770,103.088,-17.944
0.067,1.054,-0.786,4.700,87.585,-20.813
0.185,0.932,-1.064,9.888,59.326,-16.907
0.233,0.925,-1.211,27.466,29.541,-10.925
0.232,0.921,-1.043,29.480,5.188,-9.766
0.327,0.820,-0.659,31.982,-18.555,-9.888
0.464,0.762,-0.709,45.776,-38.147,-8.606
0.355,0.695,-0.678,40.466,-54.443,-10.681
0.228,0.672,-0.596,28.015,-73.425,-12.878
0.251,0.631,-0.507,15.686,-89.844,-12.329
0.240,0.742,-0.600,19.287,-109.436,-10.193
0.254,0.739,-0.579,10.071,-126.831,-11.841
0.262,0.462,0.471,-15.442,-133.545,-9.583
0.524,0.688,0.763,-26.733,-105.957,8.606
0.055,0.324,0.946,-18.860,-86.365,12.939
-0.045,0.674,0.876,-19.531,-97.473,7.019
0.110,0.824,0.827,19.897,-113.892,0.427
0.542,0.742,0.828,25.269,-110.413,-6.958
0.482,0.705,1.147,22.644,-80.627,-10.803
0.483,0.343,1.944,-23.987,-53.101,-9.521
0.433,0.728,1.772,30.457,-42.664,6.165
0.516,0.750,1.900,37.964,-25.940,3.906
0.540,0.696,1.814,43.091,-8.606,-3.479
0.593,0.598,1.719,48.340,8.179,-5.920

-0.156,0.992,1.026,-206.055,2.686,-68.237
0.127,0.945,0.475,-179.321,3.235,-63.721
0.092,0.832,0.828,-202.637,1.648,-67.810
0.060,0.825,0.826,-210.327,7.080,-70.801
0.003,0.790,0.840,-203.430,9.094,-68.970
0.016,0.725,0.817,-201.294,9.949,-70.862
0.065,0.655,0.760,-198.059,10.254,-73.608
0.101,0.679,0.675,-186.096,9.338,-75.867
0.092,0.760,0.573,-172.607,7.935,-77.209
0.080,0.812,0.488,-160.950,7.080,-77.759
0.086,0.857,0.360,-154.419,5.493,-78.125
0.115,0.871,0.317,-152.039,3.113,-78.735
0.100,0.897,0.323,-146.240,0.977,-78.796
0.066,0.874,0.370,-139.221,-0.061,-78.613
0.054,0.841,0.406,-132.202,-1.221,-76.843
0.044,0.839,0.410,-121.704,-2.930,-73.914
0.029,0.836,0.374,-111.206,-5.615,-71.899
0.021,0.841,0.279,-104.919,-9.094,-69.946
0.033,0.891,0.132,-99.426,-16.052,-67.749
0.060,0.958,-0.008,-95.459,-23.987,-67.383
0.083,0.980,-0.104,-90.698,-33.203,-68.115
0.107,0.984,-0.198,-81.116,-43.274,-67.078
0.118,0.955,-0.243,-70.679,-53.406,-65.002
0.117,0.883,-0.248,-61.951,-63.782,-62.988
0.108,0.829,-0.209,-51.514,-74.158,-60.486
0.104,0.793,-0.185,-46.936,-83.008,-58.899
0.104,0.786,-0.181,-44.434,-91.003,-58.716
0.120,0.764,-0.134,-42.603,-98.145,-58.960
0.159,0.746,-0.081,-40.894,-105.347,-58.044
0.175,0.797,-0.018,-30.945,-113.220,-55.847
0.233,0.550,0.379,-28.015,-119.995,-52.551
0.247,0.913,0.320,-7.812,-113.403,-45.715
0.086,0.534,0.911,2.747,-94.299,-46.509
0.038,0.343,1.490,-10.559,-74.158,-38.025
-0.001,0.501,1.709,-9.888,-46.448,-27.832
-0.072,0.536,1.932,-9.216,-24.109,-27.283
0.322,0.483,-0.242,-13.794,-95.215,-3.479
0.322,0.582,-0.087,-9.766,-105.957,-2.502
0.479,0.396,0.807,-34.912,-104.492,0.061
0.633,0.595,1.438,-48.767,-61.279,22.461
0.333,0.339,1.032,-37.109,-40.161,32.349
0.179,0.428,1.010,-30.334,-53.955,19.348
0.224,0.677,0.796,-40.710,-54.382,10.864
0.259,0.727,0.706,-28.931,-56.213,0.916
0.349,0.651,0.717,-22.949,-57.434,-3.845
0.479,0.707,0.705,-8.118,-52.551,-4.517
0.561,0.707,0.828,6.409,-44.800,-4.150
0.616,0.601,1.023,7.263,-39.795,0.122
0.627,0.496,1.150,17.029,-34.241,6.714
0.597,0.454,1.347,18.127,-25.818,8.301
0.537,0.472,1.513,15.259,-15.259,7.629
0.542,0.530,1.556,6.287,-4.089,6.592
0.577,0.589,1.504,7.385,7.812,5.005
0.642,0.655,1.286,10.376,20.691,3.845
0.679,0.643,1.064,6.958,29.114,3.662
0.691,0.583,1.029,-4.944,34.485,3.174
0.699,0.626,1.023,-7.385,40.588,2.014
0.717,0.647,0.972,-3.174,48.279,-0.366
0.699,0.658,0.955,0.488,55.115,-3.479
0.680,0.632,0.926,0.610,61.768,-6.653
0.668,0.862,0.460,6.470,65.369,-10.376
0.396,0.558,0.406,1.221,63.416,-19.226
0.200,0.533,0.766,-16.113,62.866,-18.433
0.150,0.428,0.886,0.305,66.040,-11.963
0.297,0.554,0.760,-1.831,70.679,-6.470
0.458,0.666,0.433,18.494,70.740,-1.892
0.574,0.712,0.034,17.395,69.458,-2.625
0.461,0.617,0.182,9.033,66.956,-3.845
0.415,0.543,0.153,-0.305,61.829,0.793
0.335,0.642,-0.041,2.014,49.133,3.967
0.330,0.905,-0.183,-8.972,39.612,-0.305
0.324,0.984,-0.557,4.517,25.024,-4.883
0.368,0.862,-0.679,1.526,4.639,-9.766
0.420,0.699,-0.522,-4.578,-14.587,-8.545
0.520,0.558,-0.216,-2.014,-30.701,-4.395
0.621,0.531,-0.090,5.981,-38.696,-0.610
0.473,0.596,-0.161,12.146,-46.326,-0.305
0.409,0.589,-0.132,1.526,-59.204,-3.418
0.347,0.562,-0.200,-2.380,-69.946,-3.174
0.352,0.587,-0.193,-3.662,-82.031,-1.343
0.401,0.620,-0.024,-2.808,-93.201,2.441
0.532,0.539,0.551,-25.757,-94.604,5.005
0.501,0.437,0.582,-18.860,-87.952,14.343
0.438,0.659,0.597,-0.671,-82.642,16.602
0.343,0.609,0.724,-16.663,-78.979,10.315
0.391,0.632,0.608,-18.311,-83.313,6.470
0.434,0.549,0.660,-20.752,-87.402,2.625
0.566,0.565,0.829,-24.231,-80.383,1.892
0.516,0.686,0.957,-7.690,-63.110,1.465
0.494,0.548,1.261,-9.033,-46.875,-1.648
0.561,0.495,1.301,-3.113,-36.743,4.822
0.543,0.452,1.359,1.099,-27.466,7.690
0.516,0.502,1.441,-4.395,-12.268,7.202
0.498,0.562,1.429,0.549,2.258,6.165
0.506,0.625,1.177,6.775,14.343,3.723
0.513,0.715,0.842,10.986,21.118,1.160
0.499,0.715,0.671,6.165,22.400,-0.671
0.461,0.634,0.655,-0.061,22.461,-0.854
0.474,0.627,0.590,-0.244,23.010,0.305
0.482,0.629,0.523,2.625,23.437,0.671
0.497,0.626,0.495,0.977,23.010,0.610
0.502,0.601,0.514,-1.770,21.729,-0.305
0.485,0.591,0.535,-5.066,21.362,-1.099
0.455,0.561,0.519,-6.592,20.996,-0.977
0.419,0.649,0.463,-3.235,19.653,0.549
0.388,0.652,0.494,-3.540,18.860,0.427
0.410,0.641,0.477,-6.714,17.944,2.014
0.423,0.657,0.408,-0.427,15.198,4.761
0.435,0.655,0.367,2.136,12.024,5.676
0.449,0.652,0.344,1.526,8.301,6.104
0.471,0.643,0.332,-1.099,4.395,6.165
0.496,0.621,0.377,-4.150,1.282,6.348
0.531,0.612,0.413,-5.127,0.366,7.019
0.563,0.621,0.432,-5.127,0.183,7.507
0.565,0.648,0.448,-6.042,0.305,6.714
0.536,0.674,0.492,-9.460,0.061,5.310
0.513,0.700,0.514,-11.475,-0.427,4.150
0.500,0.686,0.540,-12.268,-1.526,3.540
0.488,0.694,0.560,-9.583,-2.380,3.296

0.060,0.958,-0.008,-95.459,-23.987,-67.383
0.083,0.980,-0.104,-90.698,-33.203,-68.115
0.107,0.984,-0.198,-81.116,-43.274,-67.078
0.118,0.955,-0.243,-70.679,-53.406,-65.002
0.117,0.883,-0.248,-61.951,-63.782,-62.988
0.108,0.829,-0.209,-51.514,-74.158,-60.486
0.104,0.793,-0.185,-46.936,-83.008,-58.899
0.104,0.786,-0.181,-44.434,-91.003,-58.716
0.120,0.764,-0.134,-42.603,-98.145,-58.960
0.159,0.746,-0.081,-40.894,-105.347,-58.044
0.175,0.797,-0.018,-30.945,-113.220,-55.847
0.233,0.550,0.379,-28.015,-119.995,-52.551
0.247,0.913,0.320,-7.812,-113.403,-45.715
0.086,0.534,0.911,2.747,-94.299,-46.509
0.038,0.343,1.490,-10.559,-74.158,-38.025
-0.001,0.501,1.709,-9.888,-46.448,-27.832
-0.072,0.536,1.932,-9.216,-24.109,-27.283
0.322,0.483,-0.242,-13.794,-95.215,-3.479
0.322,0.582,-0.087,-9.766,-105.957,-2.502
0.479,0.396,0.807,-34.912,-104.492,0.061
0.633,0.595,1.438,-48.767,-61.279,22.461
0.547,0.522,-0.478,-12.573,35.522,-11.292
0.539,0.494,-0.536,-2.014,20.081,-9.705
0.502,0.523,-0.511,4.700,1.465,-9.216
0.467,0.549,-0.320,13.550,-18.982,-8.057
0.512,0.593,-0.298,25.696,-36.499,-5.676
0.493,0.644,-0.389,40.771,-52.612,-2.991
0.426,0.641,-0.402,48.645,-71.594,-0.854
0.419,0.618,-0.288,49.683,-91.370,2.930
0.450,0.570,-0.165,45.471,-106.812,7.568
0.490,0.576,-0.228,41.626,-120.361,10.742
0.477,0.592,-0.118,25.269,-131.836,10.864
0.504,0.547,0.202,-3.540,-137.146,9.216
0.636,0.513,0.613,-29.968,-129.761,12.634
0.428,0.608,0.698,-19.897,-114.441,17.212
0.195,0.611,0.759,2.258,-112.366,8.789
0.249,0.501,0.944,-14.465,-115.112,3.418
0.442,0.612,1.053,-6.226,-110.474,6.958
0.335,0.674,1.233,16.846,-93.323,6.836
0.307,0.439,1.737,8.728,-67.627,5.737
0.423,0.299,1.810,15.259,-50.049,12.329
0.438,0.326,1.746,20.142,-39.063,17.395
0.472,0.509,1.742,12.207,-19.165,18.738
0.501,0.513,1.675,4.639,-1.953,15.930
0.589,0.504,1.546,-1.404,8.789,11.963
0.641,0.641,1.293,3.052,21.240,10.437
0.636,0.748,1.159,6.958,32.593,8.118
0.664,0.734,1.028,5.249,41.016,3.967
0.682,0.670,0.991,6.714,47.241,0.854
0.683,0.560,0.977,5.371,55.298,-1.892
0.679,0.427,0.952,-3.357,62.195,-3.540
0.672,0.377,0.900,-16.418,68.909,-4.578
0.646,0.512,0.771,-27.222,76.050,-7.507
0.529,0.676,0.392,-32.288,79.102,-15.320
0.319,0.717,0.690,-59.326,83.191,-24.109
0.260,0.540,0.908,-60.120,93.018,-23.560
0.347,0.438,0.839,-41.321,97.168,-16.968
0.460,0.553,0.482,-19.653,97.778,-10.681
0.386,0.823,0.082,-10.132,97.412,-12.024
0.201,0.681,0.447,-17.151,101.990,-17.822
0.232,0.601,-0.200,15.686,91.797,-10.498
0.147,0.923,-0.166,20.081,80.627,-12.024
0.304,0.895,-0.315,19.958,68.604,-17.883
0.462,0.762,-0.604,43.884,42.236,-15.442
0.557,0.647,-0.684,46.692,24.414,-13.123
0.583,0.605,-0.595,39.124,7.874,-11.475
0.571,0.572,-0.339,35.461,-10.620,-10.620
0.607,0.490,-0.157,32.349,-27.527,-10.315
0.654,0.432,-0.104,33.020,-38.025,-8.118
0.532,0.532,-0.218,33.325,-49.500,-6.104
0.467,0.518,-0.200,24.048,-66.650,-5.310
0.427,0.524,-0.143,20.874,-82.642,-0.793
0.453,0.479,-0.102,18.311,-96.680,1.038
0.466,0.548,-0.148,16.052,-112.122,2.563
0.467,0.611,-0.057,6.042,-123.962,3.479
0.549,0.506,0.420,-13.977,-126.587,5.127
0.619,0.328,0.901,-51.941,-102.417,21.545
0.421,0.497,0.827,-14.282,-86.792,29.480
0.210,0.454,0.780,-12.390,-90.027,15.442
0.235,0.496,0.662,-31.189,-102.966,2.075
0.404,0.453,0.898,-30.029,-107.361,4.944
0.475,0.665,0.875,-11.902,-96.741,9.216
0.348,0.470,1.520,-7.202,-74.890,7.690
0.460,0.296,1.808,-9.949,-53.406,14.221
0.476,0.307,1.751,15.808,-44.800,24.475
0.485,0.479,1.775,15.442,-29.846,25.452
0.499,0.585,1.759,16.663,-10.620,21.667
0.554,0.559,1.657,15.564,1.709,16.602
0.644,0.629,1.472,14.160,14.526,13.977
0.663,0.766,1.227,23.193,25.757,12.268
0.627,0.733,1.234,18.311,34.607,8.667
0.645,0.668,1.175,11.475,43.396,6.165
0.674,0.624,1.120,12.817,52.185,3.662
0.690,0.549,1.001,7.629,61.218,0.122
0.699,0.497,0.925,-1.648,67.749,-3.479
0.684,0.507,0.934,-12.756,74.402,-7.690
0.644,0.616,0.833,-19.226,82.275,-13.611
0.551,0.851,0.280,-17.700,84.229,-21.240
0.286,0.592,0.782,-52.124,85.205,-31.799
0.282,0.419,0.883,-63.660,93.628,-26.855
0.388,0.431,0.690,-38.574,96.680,-18.921
0.485,0.679,0.277,-30.762,96.252,-17.090
0.265,0.847,0.312,-28.442,95.764,-23.926
0.170,0.546,0.309,-21.484,98.938,-24.841
0.131,0.687,-0.018,15.381,87.524,-14.893
0.096,0.878,-0.019,26.001,80.139,-16.479
0.287,0.807,-0.177,36.072,66.162,-19.104
0.445,0.698,-0.394,53.467,49.561,-14.160
0.565,0.597,-0.385,50.659,41.260,-11.475
0.630,0.582,-0.373,41.992,30.151,-9.338
0.622,0.563,-0.411,34.424,15.686,-10.193
0.620,0.489,-0.368,23.437,0.122,-11.963
0.634,0.410,-0.284,12.756,-12.207,-12.024
0.642,0.437,-0.261,9.766,-21.057,-9.766
0.512,0.533,-0.378,13.550,-35.950,-7.874
0.433,0.551,-0.404,12.573,-59.509,-7.324
0.385,0.594,-0.409,13.062,-81.482,-3.113
0.377,0.547,-0.227,15.503,-100.586,1.343
0.447,0.445,-0.088,15.442,-111.206,5.493

0.118,0.955,-0.243,-70.679,-53.406,-65.002
0.117,0.883,-0.248,-61.951,-63.782,-62.988
0.108,0.829,-0.209,-51.514,-74.158,-60.486
0.104,0.793,-0.185,-46.936,-83.008,-58.899
0.104,0.786,-0.181,-44.434,-91.003,-58.716
0.120,0.764,-0.134,-42.603,-98.145,-58.960
0.159,0.746,-0.081,-40.894,-105.347,-58.044
0.175,0.797,-0.018,-30.945,-113.220,-55.847
0.233,0.550,0.379,-28.015,-119.995,-52.551
0.247,0.913,0.320,-7.812,-113.403,-45.715
0.086,0.534,0.911,2.747,-94.299,-46.509
0.038,0.343,1.490,-10.559,-74.158,-38.025
-0.001,0.501,1.709,-9.888,-46.448,-27.832
-0.072,0.536,1.932,-9.216,-24.109,-27.283
0.322,0.483,-0.242,-13.794,-95.215,-3.479
0.322,0.582,-0.087,-9.766,-105.957,-2.502
0.479,0.396,0.807,-34.912,-104.492,0.061
0.633,0.595,1.438,-48.767,-61.279,22.461
0.547,0.522,-0.478,-12.573,35.522,-11.292
0.539,0.494,-0.536,-2.014,20.081,-9.705
0.502,0.523,-0.511,4.700,1.465,-9.216
0.467,0.549,-0.320,13.550,-18.982,-8.057
0.512,0.593,-0.298,25.696,-36.499,-5.676
0.493,0.644,-0.389,40.771,-52.612,-2.991
0.426,0.641,-0.402,48.645,-71.594,-0.854
0.419,0.618,-0.288,49.683,-91.370,2.930
0.450,0.570,-0.165,45.471,-106.812,7.568
0.490,0.576,-0.228,41.626,-120.361,10.742
0.477,0.592,-0.118,25.269,-131.836,10.864
0.504,0.547,0.202,-3.540,-137.146,9.216
0.636,0.513,0.613,-29.968,-129.761,12.634
0.428,0.608,0.698,-19.897,-114.441,17.212
0.195,0.611,0.759,2.258,-112.366,8.789
0.249,0.501,0.944,-14.465,-115.112,3.418
0.442,0.612,1.053,-6.226,-110.474,6.958
0.335,0.674,1.233,16.846,-93.323,6.836
0.307,0.439,1.737,8.728,-67.627,5.737
0.436,0.630,-0.144,13.550,-140.991,17.822
0.480,0.468,0.407,-16.663,-143.738,15.015
0.595,0.712,1.175,-30.151,-121.643,26.428
0.267,0.437,1.080,-27.649,-94.360,29.541
0.083,0.419,1.124,-20.813,-107.056,22.644
0.228,0.430,1.462,-20.935,-110.352,18.066
0.479,0.721,1.191,-3.906,-95.215,15.076
0.326,0.723,1.427,30.701,-70.923,5.310
0.457,0.512,1.831,-1.770,-45.288,2.625
0.510,0.496,1.815,19.958,-32.410,13.184
0.550,0.424,1.885,12.207,-17.700,16.296
0.573,0.530,1.735,13.550,-0.732,18.738
0.607,0.550,1.566,13.367,11.169,15.381
0.683,0.565,1.315,8.972,22.034,12.268
0.707,0.586,1.110,4.089,29.907,8.606
0.700,0.593,1.098,-7.935,36.865,3.906
0.698,0.656,1.027,-6.592,42.969,-0.183
0.682,0.659,1.051,-5.371,49.255,-4.822
0.686,0.596,1.054,-7.446,56.152,-7.263
0.677,0.536,0.975,-5.371,62.561,-8.179
0.648,0.603,0.821,1.526,68.237,-10.193
0.546,0.734,0.544,9.216,71.045,-14.832
0.395,0.650,0.570,0.061,72.205,-20.569
0.307,0.392,0.910,-15.198,75.195,-18.311
0.346,0.384,0.877,2.808,80.994,-10.254
0.445,0.491,0.567,25.391,83.862,-4.883
0.458,0.712,0.173,28.931,82.886,-6.104
0.298,0.655,0.421,17.212,83.435,-12.329
0.314,0.619,0.229,23.315,81.482,-10.559
0.365,0.856,-0.069,37.170,72.266,-9.644
0.372,0.813,-0.265,35.645,62.195,-15.808
0.494,0.681,-0.511,25.208,45.715,-16.846
0.604,0.637,-0.687,16.113,29.358,-14.160
0.640,0.614,-0.696,4.028,11.475,-14.771
0.634,0.542,-0.468,-12.634,-8.728,-17.517
0.669,0.537,-0.260,-18.127,-26.794,-17.029
0.614,0.572,-0.262,-14.587,-41.016,-17.761
0.463,0.534,-0.301,-26.367,-57.007,-20.142
0.381,0.494,-0.306,-36.316,-75.317,-20.630
0.385,0.509,-0.281,-40.100,-89.478,-16.235
0.395,0.534,-0.252,-33.264,-102.478,-10.620
0.367,0.532,-0.012,-25.330,-113.892,-7.141
0.491,0.449,0.288,-30.701,-120.239,-2.808
0.618,0.594,0.755,-18.311,-111.450,5.066
0.427,0.488,0.864,-19.470,-83.252,10.925
0.291,0.258,0.972,-17.761,-92.590,8.667
0.336,0.307,1.218,-26.794,-104.370,5.920
0.549,0.667,1.131,-19.531,-93.323,2.197
0.377,0.621,1.498,0.488,-71.106,-3.479
0.505,0.410,1.914,-7.141,-43.030,-3.723
0.599,0.439,1.732,17.883,-35.339,6.592
0.611,0.406,1.834,22.705,-20.020,10.010
0.579,0.449,1.771,20.935,1.526,12.451
0.599,0.460,1.635,17.944,14.221,11.536
0.661,0.496,1.277,13.306,21.729,7.996
0.643,0.486,1.084,15.564,27.527,6.348
0.629,0.484,1.059,7.019,33.508,5.859
0.654,0.503,1.036,7.446,38.940,5.676
0.681,0.472,1.044,7.385,47.485,4.150
0.689,0.392,1.054,2.502,55.420,2.441
0.693,0.377,1.016,-2.502,63.171,1.465
0.671,0.566,0.631,2.197,69.092,-1.099
0.468,0.774,0.390,6.653,70.435,-8.057
0.278,0.471,0.893,-27.039,75.745,-13.977
0.321,0.258,0.929,-31.494,81.604,-4.944
0.462,0.355,0.691,-8.972,85.632,5.432
0.537,0.600,0.220,-3.662,87.036,5.249
0.340,0.735,0.240,-17.578,86.121,-3.479
0.256,0.472,0.234,-27.588,86.121,-4.456
0.277,0.635,0.036,-13.367,76.172,4.211
0.208,0.781,-0.163,1.526,67.505,2.991
0.298,0.680,-0.170,-1.953,55.420,0.122
0.434,0.603,-0.398,8.301,41.687,5.798
0.533,0.559,-0.560,10.559,30.701,6.958
0.583,0.531,-0.623,2.625,16.174,6.836
0.583,0.477,-0.508,-8.667,-2.075,6.409
0.630,0.447,-0.397,-12.939,-20.020,7.446
0.664,0.472,-0.442,-8.667,-33.508,9.094
0.537,0.573,-0.395,-15.564,-47.852,8.301
0.453,0.555,-0.289,-25.391,-66.833,7.690
0.415,0.513,-0.174,-28.931,-81.970,11.963
0.403,0.500,-0.145,-22.339,-93.689,17.944

-0.085,1.023,-0.009,16.602,1.648,25.024
-0.101,0.896,-0.208,8.911,2.441,22.461
-0.156,0.969,-0.372,6.836,4.089,20.935
-0.226,1.013,-0.412,0.183,7.446,18.250
-0.276,1.011,-0.421,-4.883,7.019,16.479
-0.315,0.991,-0.408,-8.911,1.038,14.832
-0.359,0.990,-0.340,-6.592,-6.592,13.489
-0.318,0.971,-0.237,-0.488,-15.381,12.695
-0.262,0.917,-0.209,2.991,-25.146,10.742
-0.224,0.966,-0.261,9.949,-29.785,7.141
-0.231,0.998,-0.254,17.090,-32.410,4.028
-0.220,0.941,-0.195,8.972,-33.691,4.272
-0.179,0.825,-0.156,-8.179,-33.936,8.789
-0.174,0.789,-0.189,-17.273,-34.363,14.282
-0.179,0.822,-0.199,-25.940,-35.278,19.287
-0.162,0.941,-0.151,-35.339,-35.400,22.949
-0.143,1.062,-0.200,-38.635,-36.316,24.414
-0.163,1.136,-0.214,-32.776,-39.429,25.452
-0.129,1.039,-0.226,-24.109,-44.556,28.198
-0.108,0.903,-0.179,-22.827,-48.279,30.273
-0.097,0.828,-0.146,-27.527,-50.842,32.776
-0.111,0.835,-0.145,-32.043,-53.040,34.912
-0.123,0.850,-0.050,-43.945,-54.199,36.438
-0.088,0.836,0.000,-61.523,-53.101,38.879
-0.036,0.793,-0.038,-79.285,-51.575,41.992
-0.011,0.811,-0.098,-97.168,-49.988,45.044
-0.007,0.887,-0.129,-110.046,-49.927,47.974
-0.010,0.936,-0.102,-116.455,-51.819,51.453
-0.033,1.005,-0.007,-118.164,-53.040,55.420
-0.051,1.084,0.110,-115.601,-53.101,59.204
-0.041,1.133,0.289,-112.000,-51.453,60.730
-0.074,1.041,0.446,-113.220,-45.776,59.875
-0.081,0.953,0.642,-124.146,-33.997,59.265
-0.083,0.849,0.713,-130.615,-18.250,59.631
-0.069,0.767,0.650,-139.099,-3.357,60.242
-0.136,0.825,0.409,-148.315,7.812,60.730
-0.140,0.969,-0.023,-148.315,15.198,58.899
-0.158,1.071,-0.445,-150.024,18.616,53.528
-0.142,1.066,-0.790,-144.897,15.686,49.255
-0.125,1.067,-1.070,-138.367,7.812,45.898
-0.100,1.028,-1.194,-130.127,-3.418,42.969
-0.056,1.009,-1.202,-115.234,-17.761,40.710
-0.002,1.038,-1.058,-91.431,-33.508,39.124
0.037,1.028,-0.851,-58.960,-45.898,36.560
0.012,0.813,-0.535,-35.583,-50.720,32.349
0.061,0.530,0.191,-29.480,-43.579,30.151
-0.021,0.321,0.799,-38.574,-23.682,30.029
-0.073,0.335,1.060,-46.082,3.601,34.485
-0.152,0.388,1.109,-45.349,32.532,39.185
-0.243,0.589,0.618,-41.199,59.265,41.565
-0.494,0.725,0.250,-30.273,76.965,37.781
-0.473,0.545,0.284,-25.208,87.097,39.551
-0.483,0.767,-0.029,-0.854,91.553,40.405
-0.523,0.905,-0.070,5.798,98.450,36.621
-0.332,0.712,-0.235,6.226,106.506,35.950
-0.437,0.966,-1.419,-3.052,107.422,29.785
-1.064,1.226,-1.352,-34.790,107.910,14.893
-1.060,1.341,-0.816,-35.706,109.314,11.719
-0.553,1.034,-0.710,-42.725,96.069,4.333
-0.433,0.750,-0.882,-69.031,86.853,-6.836
-0.506,0.614,-1.111,-99.548,80.261,-11.841
-0.582,0.671,-1.480,-112.976,68.970,-12.756
-0.710,0.468,-1.603,-124.329,56.274,-14.648
-0.834,0.340,-1.804,-121.826,39.246,-8.545
-0.969,0.473,-1.796,-106.079,17.761,1.587
-0.876,0.480,-1.472,-69.885,-4.211,10.193
-0.725,0.407,-1.199,-21.545,-20.752,19.592
-0.778,0.661,-0.970,8.972,-27.527,27.771
-0.802,0.865,-0.400,17.090,-27.954,30.884
-0.719,1.195,-0.266,2.686,-25.391,28.137
-0.775,0.925,-0.166,-35.583,-30.579,20.386
-0.723,0.894,-0.135,-37.170,-35.828,22.461
-0.663,0.764,-0.308,-48.096,-38.635,16.479
-0.533,0.619,-0.707,-55.054,-46.021,11.475
-0.533,0.667,-0.965,-44.617,-56.213,9.399
-0.475,0.860,-1.136,-26.733,-67.505,9.766
-0.394,0.920,-1.126,-2.258,-80.322,10.376
-0.122,0.695,-0.717,14.404,-87.402,13.062
-0.097,0.924,-0.751,31.128,-78.125,13.489
-0.127,0.702,-0.188,15.259,-61.829,8.972
-0.075,0.623,0.182,6.287,-49.194,10.315
-0.035,0.556,0.489,4.944,-31.250,7.019
0.001,0.529,0.717,9.094,-8.362,3.967
0.016,0.592,0.577,15.747,15.747,2.441
-0.126,0.811,0.078,20.813,36.377,-0.854
-0.352,0.695,0.096,15.625,49.500,-4.028
-0.406,0.590,0.171,12.268,62.744,-0.916
-0.337,0.574,0.188,11.353,76.477,1.465
-0.199,0.525,0.125,-0.610,90.576,-1.221
-0.226,0.559,-0.227,-3.845,103.210,-4.944
-0.405,0.801,-1.024,-9.644,110.168,-7.629
-0.918,0.713,-0.892,-28.381,108.337,-10.925
-0.945,0.342,-0.508,-52.002,110.413,-4.517
-0.701,0.539,-1.188,-44.800,106.018,3.601
-0.908,0.798,-1.812,-50.171,95.276,0.610
-1.541,0.645,-1.754,-52.795,78.247,1.221
-1.515,0.799,-1.905,-62.256,58.411,5.859
-1.484,1.034,-2.125,-51.575,18.921,-0.183
-1.349,0.747,-1.848,-38.696,-19.897,-7.996
-0.922,0.355,-1.119,-19.165,-49.133,-4.089
-0.636,0.338,-0.698,11.353,-59.143,2.930
-0.511,0.578,-0.719,36.804,-56.335,4.700
-0.509,0.933,-1.295,51.575,-55.176,-0.610
-0.690,0.842,-1.296,41.626,-63.171,-10.803
-0.697,0.844,-0.982,34.607,-74.890,-5.676
-0.425,0.654,-0.616,15.442,-78.308,-0.854
-0.399,0.499,-0.323,-9.583,-74.524,1.465
-0.452,0.594,-0.531,-21.057,-74.097,5.798
-0.593,0.795,-0.700,-21.362,-78.674,5.188
-0.486,0.682,-0.706,-14.709,-93.384,0.977
-0.300,0.432,-0.359,-3.784,-103.027,0.427
-0.013,0.473,-0.187,9.338,-93.567,3.235
-0.065,0.619,0.155,27.832,-71.411,4.089
-0.095,0.651,0.531,26.489,-49.438,3.540
-0.123,0.752,0.653,37.048,-29.724,2.991
-0.155,0.773,0.747,52.002,-6.470,0.977
-0.179,0.961,0.330,62.195,16.174,0.488
-0.325,0.965,0.042,64.392,30.823,-3.357
-0.433,0.799,0.072,60.120,39.917,-5.005

-0.101,0.896,-0.208,8.911,2.441,22.461
-0.156,0.969,-0.372,6.836,4.089,20.935
-0.226,1.013,-0.412,0.183,7.446,18.250
-0.276,1.011,-0.421,-4.883,7.019,16.479
-0.315,0.991,-0.408,-8.911,1.038,14.832
-0.359,0.990,-0.340,-6.592,-6.592,13.489
-0.318,0.971,-0.237,-0.488,-15.381,12.695
-0.262,0.917,-0.209,2.991,-25.146,10.742
-0.224,0.966,-0.261,9.949,-29.785,7.141
-0.231,0.998,-0.254,17.090,-32.410,4.028
-0.220,0.941,-0.195,8.972,-33.691,4.272
-0.179,0.825,-0.156,-8.179,-33.936,8.789
-0.174,0.789,-0.189,-17.273,-34.363,14.282
-0.179,0.822,-0.199,-25.940,-35.278,19.287
-0.162,0.941,-0.151,-35.339,-35.400,22.949
-0.143,1.062,-0.200,-38.635,-36.316,24.414
-0.163,1.136,-0.214,-32.776,-39.429,25.452
-0.129,1.039,-0.226,-24.109,-44.556,28.198
-0.108,0.903,-0.179,-22.827,-48.279,30.273
-0.097,0.828,-0.146,-27.527,-50.842,32.776
-0.111,0.835,-0.145,-32.043,-53.040,34.912
-0.123,0.850,-0.050,-43.945,-54.199,36.438
-0.088,0.836,0.000,-61.523,-53.101,38.879
-0.036,0.793,-0.038,-79.285,-51.575,41.992
-0.011,0.811,-0.098,-97.168,-49.988,45.044
-0.007,0.887,-0.129,-110.046,-49.927,47.974
-0.010,0.936,-0.102,-116.455,-51.819,51.453
-0.033,1.005,-0.007,-118.164,-53.040,55.420
-0.051,1.084,0.110,-115.601,-53.101,59.204
-0.041,1.133,0.289,-112.000,-51.453,60.730
-0.074,1.041,0.446,-113.220,-45.776,59.875
-0.081,0.953,0.642,-124.146,-33.997,59.265
-0.083,0.849,0.713,-130.615,-18.250,59.631
-0.069,0.767,0.650,-139.099,-3.357,60.242
-0.136,0.825,0.409,-148.315,7.812,60.730
-0.140,0.969,-0.023,-148.315,15.198,58.899
-0.158,1.071,-0.445,-150.024,18.616,53.528
-0.142,1.066,-0.790,-144.897,15.686,49.255
-0.125,1.067,-1.070,-138.367,7.812,45.898
-0.751,0.967,-0.606,-55.237,78.125,-2.747
-0.616,1.122,-0.903,-78.430,74.524,-8.850
-0.750,1.089,-1.067,-91.309,63.416,-16.296
-0.906,0.635,-0.970,-93.201,54.382,-17.578
-1.035,0.754,-1.065,-90.271,36.987,-10.559
-1.138,1.209,-1.318,-47.485,12.756,-10.254
-0.938,1.131,-1.491,5.005,-13.245,-14.832
-0.801,0.961,-1.354,38.940,-34.241,-15.320
-0.577,0.754,-0.909,51.147,-41.626,-11.536
-0.370,0.695,-0.725,53.406,-39.551,-4.517
-0.236,0.902,-0.776,45.105,-36.682,-4.639
-0.369,1.105,-0.889,30.396,-38.940,-10.925
-0.501,1.001,-0.893,8.484,-45.715,-18.066
-0.590,0.788,-0.994,0.183,-54.565,-20.630
-0.567,0.791,-1.004,-8.850,-65.613,-22.705
-0.536,0.698,-0.870,-11.169,-77.454,-25.146
-0.333,0.621,-0.939,4.150,-84.229,-23.193
-0.363,0.769,-1.254,23.193,-89.722,-20.630
-0.466,0.687,-1.079,25.513,-102.966,-20.813
-0.436,0.649,-0.700,46.387,-114.258,-14.404
-0.220,0.710,-1.023,72.937,-122.986,-9.216
-0.394,0.550,-0.455,75.378,-123.901,-9.888
-0.300,0.439,0.174,61.523,-110.962,-3.601
-0.303,0.397,0.427,52.979,-96.619,-0.854
-0.368,0.553,0.656,40.039,-78.003,-5.188
-0.413,0.709,0.745,30.884,-55.420,-11.108
-0.480,0.905,0.380,26.306,-33.875,-19.836
-0.637,1.010,0.141,15.381,-18.433,-30.579
-0.582,0.886,0.133,8.179,-9.583,-36.377
-0.461,0.872,-0.061,20.447,-6.592,-36.987
-0.382,0.844,-0.122,31.250,-4.639,-38.696
-0.303,0.789,-0.077,26.245,0.122,-36.560
-0.182,0.802,-0.050,19.165,6.104,-32.227
-0.082,0.715,-0.000,5.493,13.062,-31.372
-0.014,0.766,-0.012,-0.854,21.973,-30.151
-0.051,0.992,-0.196,5.676,30.029,-30.090
-0.124,0.987,-0.183,1.648,39.185,-32.715
-0.156,1.035,-0.205,3.845,48.767,-32.593
-0.196,1.136,-0.293,7.568,58.472,-35.461
-0.246,1.197,-0.561,7.202,64.148,-41.016
-0.322,1.252,-0.840,-5.737,64.209,-47.058
-0.531,1.376,-1.087,-1.892,56.519,-50.171
-0.610,1.473,-1.232,10.681,50.354,-51.147
-0.708,1.555,-1.635,36.926,33.203,-51.697
-0.827,1.761,-1.848,50.537,9.644,-56.641
-0.821,1.683,-1.724,72.937,-18.799,-66.650
-0.777,1.516,-1.509,96.313,-55.908,-76.355
-0.639,1.267,-0.853,113.892,-83.008,-81.665
-0.405,1.017,-0.438,131.470,-92.285,-85.449
-0.276,0.810,-0.039,138.550,-89.966,-89.783
-0.141,0.734,0.080,136.230,-78.430,-91.675
-0.060,0.712,0.161,128.540,-66.956,-93.079
-0.029,0.726,0.214,113.403,-53.955,-93.689
-0.014,0.859,0.071,109.680,-43.274,-90.576
-0.029,0.892,-0.030,107.971,-34.607,-86.975
0.002,0.889,-0.196,101.624,-31.067,-80.933
0.018,0.820,-0.396,95.825,-32.776,-74.829
0.040,0.803,-0.597,81.482,-40.894,-69.702
0.073,0.781,-0.665,71.228,-53.406,-64.148
0.187,0.596,-0.523,59.082,-63.599,-58.533
0.311,0.444,-0.594,57.068,-73.730,-53.162
0.312,0.399,-0.382,44.006,-79.895,-51.208
0.270,0.476,-0.196,43.152,-84.412,-50.842
0.262,0.544,0.001,50.537,-90.210,-50.476
0.282,0.618,0.297,72.144,-94.421,-44.922
0.331,0.595,0.544,91.125,-97.046,-37.659
0.384,0.555,0.761,97.900,-91.858,-33.875
0.356,0.420,0.804,96.924,-77.637,-32.959
0.363,0.462,1.010,90.271,-51.086,-31.860
0.313,0.395,1.151,100.464,-24.658,-30.640
0.332,0.407,1.220,107.178,0.854,-23.865
0.315,0.556,1.117,118.469,25.940,-14.709
0.245,0.678,0.799,122.437,45.349,-10.376
0.148,0.645,0.705,108.459,56.885,-6.470
0.158,0.688,0.800,98.083,66.833,-1.587
0.151,0.865,0.687,100.708,76.477,1.038
0.107,1.026,0.674,101.563,87.646,0.366
0.135,1.059,0.552,93.994,100.525,-0.854
0.108,1.437,-0.329,96.802,104.797,-3.540
-0.197,1.532,-0.050,64.575,110.474,-16.357

-0.129,1.039,-0.226,-24.109,-44.556,28.198
-0.108,0.903,-0.179,-22.827,-48.279,30.273
-0.097,0.828,-0.146,-27.527,-50.842,32.776
-0.111,0.835,-0.145,-32.043,-53.040,34.912
-0.123,0.850,-0.050,-43.945,-54.199,36.438
-0.088,0.836,0.000,-61.523,-53.101,38.879
-0.036,0.793,-0.038,-79.285,-51.575,41.992
-0.011,0.811,-0.098,-97.168,-49.988,45.044
-0.007,0.887,-0.129,-110.046,-49.927,47.974
-0.010,0.936,-0.102,-116.455,-51.819,51.453
-0.033,1.005,-0.007,-118.164,-53.040,55.420
-0.051,1.084,0.110,-115.601,-53.101,59.204
-0.041,1.133,0.289,-112.000,-51.453,60.730
-0.074,1.041,0.446,-113.220,-45.776,59.875
-0.081,0.953,0.642,-124.146,-33.997,59.265
-0.083,0.849,0.713,-130.615,-18.250,59.631
-0.069,0.767,0.650,-139.099,-3.357,60.242
-0.136,0.825,0.409,-148.315,7.812,60.730
-0.140,0.969,-0.023,-148.315,15.198,58.899
-0.158,1.071,-0.445,-150.024,18.616,53.528
-0.142,1.066,-0.790,-144.897,15.686,49.255
-0.125,1.067,-1.070,-138.367,7.812,45.898
-0.751,0.967,-0.606,-55.237,78.125,-2.747
0.055,1.088,-0.603,-5.127,36.011,-2.563
0.156,1.021,-0.629,6.042,17.944,-0.305
0.260,0.977,-0.742,18.921,0.977,2.197
0.323,0.902,-0.711,18.677,-13.062,1.709
0.356,0.811,-0.575,15.198,-28.687,0.610
0.437,0.756,-0.485,15.259,-42.542,1.770
0.492,0.787,-0.586,17.090,-52.612,3.357
0.465,0.828,-0.489,6.775,-62.012,1.587
0.463,0.777,-0.417,-6.348,-75.073,2.930
0.458,0.704,-0.301,-12.146,-87.585,6.226
0.468,0.707,-0.212,-21.606,-93.445,11.780
0.446,0.751,-0.204,-19.897,-100.098,15.442
0.459,0.721,-0.350,-11.108,-107.178,16.541
0.232,0.937,-0.217,35.217,-121.216,16.418
0.384,0.724,-0.066,-1.770,-127.441,20.813
0.324,1.043,0.464,-3.052,-126.709,23.376
0.300,1.353,0.654,11.169,-111.572,19.897
0.159,0.911,0.406,-13.794,-100.464,10.498
0.016,0.894,0.417,-27.283,-107.910,11.414
-0.078,1.001,0.247,-27.893,-113.220,14.282
-0.122,0.950,0.196,-16.357,-117.798,9.155
-0.082,0.949,0.122,-12.451,-123.047,5.005
0.043,1.037,0.053,1.282,-127.747,5.493
0.076,1.064,0.350,6.897,-128.540,5.798
0.061,0.909,0.594,7.141,-122.375,6.775
0.079,0.829,0.621,16.602,-115.295,10.559
0.118,0.920,0.676,20.020,-108.521,13.550
0.164,0.989,0.781,17.517,-100.586,12.207
0.208,1.059,0.760,22.095,-91.614,8.911
0.255,1.109,0.702,28.015,-83.008,6.470
0.327,1.097,0.641,19.958,-73.975,4.578
0.304,1.126,0.509,10.132,-66.162,2.258
0.208,1.117,0.449,1.526,-61.829,0.122
0.175,1.065,0.479,-10.437,-57.434,-0.793
0.218,1.056,0.479,-17.517,-52.002,-0.854
0.282,1.013,0.523,-26.794,-44.006,-3.418
0.346,0.961,0.562,-34.546,-34.363,-6.287
0.336,0.948,0.545,-37.170,-25.879,-10.498
0.228,0.981,0.465,-37.292,-16.907,-15.564
0.099,0.979,0.456,-40.894,-9.399,-19.836
0.093,0.795,0.326,-54.138,-1.038,-19.653
0.107,0.802,0.380,-69.580,6.958,-14.954
0.072,1.018,0.284,-61.523,15.625,-14.587
0.038,1.067,0.012,-48.157,23.865,-16.602
-0.072,1.179,-0.298,-28.442,24.475,-16.785
-0.135,1.067,-0.439,-19.897,21.667,-17.334
-0.223,1.182,-0.915,2.502,11.658,-13.794
-0.498,1.047,-0.668,11.658,-6.348,-14.465
-0.502,1.033,-0.853,-2.747,-19.958,-8.667
-0.503,1.228,-1.001,10.437,-38.269,-7.324
-0.420,1.225,-0.646,-1.160,-49.011,-12.695
-0.170,1.081,-0.498,-1.099,-50.232,-11.719
-0.016,1.027,0.052,-3.418,-44.495,-9.155
-0.027,0.879,-0.076,2.441,-36.682,-8.301
0.079,0.550,-0.087,-7.019,-45.593,-9.705
0.163,0.607,-0.253,-13.489,-48.096,-7.446
0.088,0.890,-0.389,-3.845,-58.472,-6.714
-0.018,0.899,-0.196,2.747,-75.623,-7.141
-0.094,0.992,-0.100,31.006,-87.463,-0.427
-0.039,0.917,0.387,46.448,-88.440,8.057
0.171,1.038,0.888,31.738,-64.087,15.442
0.252,0.781,1.009,8.240,-37.415,19.531
0.232,0.645,1.133,-30.579,-28.809,23.132
0.111,0.744,1.054,-24.231,-20.020,23.315
0.130,0.703,0.600,-1.770,-11.902,15.198
0.107,0.798,0.465,-3.479,-12.573,3.967
0.156,0.935,0.297,-0.854,-13.367,0.854
0.186,1.042,0.239,8.301,-14.526,1.526
0.222,1.032,0.217,11.230,-12.268,1.953
0.265,1.059,0.226,9.338,-8.667,3.967
0.315,1.125,0.198,15.869,-3.174,7.019
0.351,1.146,0.134,19.897,1.404,8.911
0.309,0.954,-0.070,18.738,1.892,7.019
0.342,0.765,0.220,-25.574,-7.568,8.423
0.503,1.028,0.491,-74.829,-0.427,3.174
0.408,1.161,0.292,-34.546,14.282,-13.672
0.285,1.146,0.273,-14.526,20.569,-24.719
0.193,1.021,0.071,-1.648,24.353,-24.170
0.115,1.014,-0.263,17.700,22.400,-21.057
0.017,1.283,-0.779,38.513,7.874,-18.433
-0.391,1.309,-0.553,49.927,-16.724,-23.254
-0.645,0.771,-0.396,21.057,-30.762,-18.555
-0.625,0.612,-0.720,7.874,-46.021,1.465
-0.372,0.582,-0.521,-13.123,-57.251,2.869
-0.018,0.831,-0.402,-0.122,-53.223,-1.892
0.061,1.156,-0.095,18.860,-38.330,-4.150
0.051,1.316,-0.015,8.789,-27.283,-12.329
0.035,1.038,-0.068,-13.062,-26.245,-23.682
0.047,0.855,-0.016,-26.245,-28.442,-24.353
0.080,0.818,0.153,-23.193,-31.128,-18.555
0.120,1.022,0.227,-11.414,-35.095,-14.221
0.140,0.970,0.260,-19.470,-35.950,-12.451
0.082,0.910,0.290,-35.461,-35.828,-10.498
0.018,0.944,0.106,-41.992,-39.856,-10.803
-0.027,0.859,-0.085,-45.959,-48.645,-14.465
-0.037,0.708,-0.128,-46.082,-59.937,-17.761

0.234,0.985,0.067,-5.615,-39.551,2.625
0.273,0.937,0.173,-0.610,-44.983,1.404
0.366,0.890,0.318,6.165,-43.518,3.052
0.379,0.905,0.536,10.376,-31.921,4.456
0.339,0.793,0.831,9.216,-20.264,3.967
0.312,0.762,0.913,24.414,-10.681,6.409
0.298,0.803,0.893,34.424,-0.244,9.216
0.235,0.886,0.714,24.292,9.888,9.827
0.107,0.951,0.655,4.150,16.357,6.958
0.072,0.972,0.635,-6.226,21.057,5.188
0.161,0.944,0.592,-5.188,25.024,4.639
0.250,1.049,0.423,9.766,29.053,5.310
0.272,1.194,0.085,19.958,33.752,3.113
0.167,1.187,0.018,19.470,33.875,-1.221
0.094,1.087,0.136,5.920,33.081,-2.808
0.079,1.026,0.117,6.348,32.410,-0.671
0.106,0.939,0.134,3.601,31.311,0.244
0.115,0.859,0.152,-0.488,29.602,-0.610
0.138,0.827,0.173,-6.104,28.259,-0.977
0.170,0.883,0.099,-7.507,26.001,-0.793
0.200,0.902,0.066,-9.155,23.621,-0.854
0.220,0.924,0.022,-9.216,21.545,-0.244
0.211,0.957,-0.020,-7.568,19.897,0.977
0.200,0.978,-0.114,-5.493,18.311,2.136
0.172,0.974,-0.200,-4.761,15.259,2.747
0.135,0.981,-0.254,1.343,10.071,2.991
0.129,0.909,-0.187,4.578,4.333,3.784
0.167,0.897,-0.194,11.292,0.061,5.371
0.146,0.898,-0.176,12.146,-2.808,5.737
0.108,0.941,-0.229,5.981,-7.385,5.127
0.092,0.924,-0.218,-1.648,-15.015,3.601
0.106,0.898,-0.234,-6.592,-24.963,4.089
0.108,0.912,-0.279,-9.216,-36.438,5.310
0.117,0.933,-0.221,-9.155,-48.401,5.249
0.129,0.942,-0.130,-3.601,-61.340,4.822
0.186,0.870,0.117,2.441,-69.336,4.517
0.255,0.799,0.510,3.967,-63.171,6.042
0.254,0.774,0.840,8.301,-46.753,8.484
0.284,0.739,1.031,7.935,-31.616,11.230
0.284,0.860,1.125,10.132,-17.578,12.451
0.217,0.926,1.179,12.878,-4.395,10.132
0.196,1.001,0.992,12.878,8.057,8.545
0.162,1.079,0.666,14.282,15.686,6.226
0.142,1.083,0.521,7.202,19.104,1.770
0.174,1.024,0.578,2.930,20.569,-0.061
0.264,0.946,0.591,3.540,24.048,0.854
0.324,0.932,0.585,4.578,29.175,2.319
0.340,0.961,0.547,0.061,35.522,1.709
0.329,1.050,0.381,-6.042,40.894,0.061
0.220,1.203,0.203,-9.155,43.701,-3.113
0.049,1.092,0.252,-16.052,45.593,-7.507
-0.027,0.834,0.335,-24.109,49.500,-7.751
0.033,0.823,0.239,-14.954,51.880,-2.869
0.065,0.817,0.172,-7.446,53.162,-1.099
0.121,0.857,0.027,-0.549,54.138,-0.671
0.153,0.903,-0.139,3.296,52.856,-0.916
0.154,0.965,-0.346,0.122,48.950,-0.916
0.095,1.029,-0.474,-4.517,41.992,-0.732
0.018,1.060,-0.549,-9.277,31.677,-0.183
-0.004,1.083,-0.627,-10.620,18.555,0.732
-0.028,1.054,-0.588,-6.104,2.747,1.465
0.070,0.930,-0.319,-1.099,-10.132,2.380
0.173,0.942,-0.296,15.808,-18.311,2.686
0.137,0.945,-0.187,15.991,-23.743,-1.465
0.143,0.935,-0.076,5.737,-28.503,-5.127
0.201,0.880,0.087,0.305,-30.396,-6.653
0.231,0.940,0.114,1.404,-31.250,-5.737
0.237,0.985,0.058,2.747,-36.194,-5.432
0.252,0.971,0.034,3.113,-44.006,-4.639
0.281,0.990,0.059,8.606,-52.979,-3.601
0.330,1.007,0.046,14.526,-62.744,-4.639
0.392,0.961,0.218,15.442,-68.726,-5.859
0.411,0.936,0.516,8.789,-63.293,-6.104
0.351,0.888,0.816,4.639,-50.537,-6.409
0.288,0.821,1.001,3.906,-37.781,-5.432
0.228,0.831,1.097,8.606,-24.536,-4.761
0.177,0.841,1.158,11.108,-8.789,-6.165
0.163,0.875,0.922,14.526,5.798,-7.812
0.076,0.875,0.574,14.282,13.733,-8.850
0.014,0.882,0.476,5.554,18.066,-8.606
0.037,0.795,0.569,3.723,21.423,-5.920
0.089,0.871,0.507,19.470,23.926,-1.892
0.161,0.913,0.529,31.128,28.809,-0.854
0.217,0.925,0.383,34.851,35.034,0.549
0.216,1.023,0.021,36.316,37.964,1.038
0.052,1.152,-0.034,30.762,36.194,-1.709
0.018,0.939,0.191,2.380,34.912,-4.272
0.117,0.836,0.161,-1.892,32.288,-0.549
0.170,0.858,0.145,-1.160,33.264,1.648
0.194,0.824,0.185,-10.071,35.889,1.221
0.242,0.809,0.200,-18.677,38.818,0.854
0.254,0.858,0.172,-23.376,41.992,0.305
0.232,0.845,0.180,-27.710,44.189,-0.549
0.215,0.858,0.121,-27.954,45.349,-0.183
0.179,0.894,0.049,-27.222,46.082,0.000
0.123,0.959,-0.027,-25.085,45.837,-0.305
0.095,0.965,-0.048,-22.522,45.471,-0.732
0.098,0.953,-0.138,-16.357,43.701,0.000
0.109,0.961,-0.324,-8.301,38.330,1.038
0.102,0.958,-0.429,-3.601,28.320,1.526
0.127,0.967,-0.418,0.854,14.771,2.258
0.127,1.037,-0.500,10.864,0.305,3.540
0.087,1.062,-0.504,8.179,-13.306,2.991
0.131,0.974,-0.434,5.737,-28.687,4.089
0.211,0.907,-0.304,3.906,-40.588,7.263
0.264,0.845,0.054,-11.414,-43.762,9.827
0.196,0.779,0.182,-21.973,-41.443,14.954
0.112,0.876,0.277,-14.893,-45.288,17.700
0.115,0.966,0.283,-6.531,-48.584,16.479
0.159,0.966,0.229,11.353,-54.077,15.381
0.185,0.894,0.276,25.269,-54.626,14.771
0.228,0.897,0.475,32.654,-47.546,15.991
0.210,0.943,0.607,36.438,-34.546,16.296
0.184,0.877,0.681,38.269,-22.949,18.250
0.165,0.828,0.672,40.894,-14.771,23.315
0.117,0.806,0.682,36.926,-7.996,23.926
0.095,0.831,0.676,28.931,-2.136,21.667
0.104,0.854,0.611,24.292,2.808,19.958
0.138,0.885,0.424,22.583,6.287,19.714

-0.130,0.797,-0.087,-10.376,26.489,17.334
-0.140,0.807,-0.118,-10.742,26.611,19.775
-0.153,0.851,-0.146,-11.719,26.917,22.522
-0.154,0.915,-0.205,-15.259,28.381,23.987
-0.156,0.961,-0.238,-20.264,29.663,24.414
-0.155,0.962,-0.246,-24.475,30.518,23.560
-0.149,0.958,-0.260,-30.151,31.067,22.156
-0.135,0.974,-0.278,-34.607,32.288,19.714
-0.149,0.951,-0.338,-36.133,32.715,16.724
-0.149,0.901,-0.372,-38.208,32.349,15.137
-0.177,0.854,-0.456,-42.053,31.982,14.709
-0.217,0.828,-0.491,-46.936,30.823,15.625
-0.238,0.813,-0.472,-55.786,30.273,17.639
-0.269,0.907,-0.499,-67.078,30.823,19.531
-0.323,0.981,-0.448,-78.857,29.297,18.860
-0.366,0.980,-0.450,-86.731,23.193,18.677
-0.406,1.038,-0.525,-90.576,14.465,19.226
-0.473,1.105,-0.491,-88.745,3.174,19.897
-0.452,0.912,-0.789,-75.256,-12.024,22.705
-0.407,0.955,-0.714,-58.899,-26.794,26.123
-0.348,1.029,-0.612,-40.649,-35.706,26.489
-0.374,0.886,-0.320,-31.616,-39.551,25.513
-0.306,0.715,-0.020,-32.898,-37.781,29.785
-0.264,0.770,0.303,-36.011,-29.968,33.630
-0.304,0.741,0.449,-49.377,-17.395,31.433
-0.290,0.750,0.552,-61.401,-4.822,28.381
-0.220,0.768,0.555,-59.692,2.869,28.687
-0.225,0.701,0.427,-50.354,12.390,28.870
-0.088,0.775,0.355,-42.908,22.644,30.457
-0.090,0.998,0.080,-38.269,34.485,29.236
-0.137,1.063,-0.102,-35.278,42.114,28.137
-0.149,0.936,-0.006,-44.495,49.133,29.663
-0.155,1.016,-0.026,-36.316,57.251,32.349
-0.120,1.006,-0.017,-37.659,67.383,31.128
-0.122,0.880,-0.051,-52.795,78.674,26.733
-0.083,0.794,-0.333,-67.810,88.867,23.743
-0.288,1.018,-0.804,-75.989,91.187,18.616
-0.475,0.906,-0.869,-95.398,88.501,12.878
-0.545,0.663,-0.932,-101.318,87.402,15.381
-0.446,0.649,-1.189,-97.717,83.069,19.043
-0.470,0.882,-1.477,-91.919,71.411,18.677
-0.653,1.073,-1.792,-85.571,55.237,15.137
-0.985,0.881,-1.957,-72.327,36.499,13.672
-1.337,0.825,-1.637,-70.374,14.404,18.433
-1.262,0.801,-1.346,-62.683,-10.925,21.545
-0.928,0.609,-0.759,-31.738,-33.569,21.912
-0.678,0.784,-0.632,11.230,-42.236,24.780
-0.746,0.906,-0.514,41.626,-39.978,21.851
-0.670,1.109,-0.754,51.514,-38.391,13.245
-0.770,0.843,-0.625,20.874,-44.800,-0.854
-0.749,0.727,-0.707,14.160,-56.824,-0.793
-0.732,0.767,-0.937,2.014,-70.557,0.610
-0.648,0.800,-0.989,-8.667,-88.135,0.305
-0.465,0.762,-0.908,-0.854,-106.567,1.038
-0.244,0.733,-0.473,12.146,-118.835,1.587
0.067,0.745,-0.193,20.569,-112.366,2.197
0.113,0.591,0.492,31.555,-93.445,4.822
0.367,0.456,1.013,27.893,-73.364,17.029
0.372,0.520,0.964,52.917,-47.729,28.198
0.231,0.644,1.360,56.335,-18.799,36.072
0.225,0.744,0.749,59.937,11.414,43.335
0.031,0.917,0.507,27.161,28.931,42.480
-0.229,0.830,0.516,9.033,45.044,38.635
-0.273,0.881,0.338,2.563,60.852,38.269
-0.237,1.040,0.016,-2.197,74.097,35.645
-0.334,0.975,0.084,-30.884,83.740,25.879
-0.293,0.859,0.033,-58.716,97.900,18.372
-0.345,1.110,-0.537,-75.562,109.924,9.583
-0.536,0.783,-0.598,-104.248,115.356,-4.944
-0.614,0.836,-0.566,-119.995,118.164,-7.202
-0.613,0.838,-0.968,-133.545,116.882,-12.573
-0.905,0.731,-1.570,-120.361,106.079,-17.212
-1.491,0.589,-1.399,-112.183,92.896,-13.306
-1.639,1.110,-1.984,-70.068,67.322,-4.700
-1.458,1.060,-2.211,-29.358,25.818,-10.193
-1.295,1.131,-2.152,-2.136,-12.329,-7.446
-1.031,0.853,-1.251,28.259,-40.039,-4.822
-0.614,0.571,-0.697,49.255,-48.584,-1.770
-0.377,0.741,-1.024,56.274,-48.950,-6.897
-0.627,0.838,-0.870,28.809,-57.007,-23.254
-0.636,0.674,-1.285,27.588,-67.017,-32.776
-0.639,0.734,-1.323,18.555,-80.383,-32.043
-0.654,0.659,-0.918,9.399,-95.459,-28.625
-0.345,0.493,-0.785,14.709,-104.980,-23.621
-0.191,0.722,-0.936,28.381,-104.797,-19.897
-0.380,0.659,-0.692,16.846,-112.305,-21.851
-0.321,0.671,-0.360,9.216,-123.108,-18.066
0.008,0.518,-0.099,16.785,-124.878,-16.235
-0.085,0.886,0.216,34.302,-107.056,-17.029
0.007,0.442,1.165,4.272,-80.750,-20.447
0.133,0.360,1.332,10.559,-52.063,-10.559
0.107,0.256,1.667,17.090,-19.104,-4.089
0.026,0.582,1.151,26.917,13.123,5.249
-0.209,0.759,0.537,25.635,37.476,5.127
-0.436,0.754,0.237,6.409,51.086,6.409
-0.566,0.756,0.230,6.714,61.279,13.550
-0.447,0.740,0.193,7.629,71.289,19.836
-0.217,0.727,0.022,-8.362,82.092,20.874
-0.105,1.168,-0.903,-30.945,91.492,14.648
-0.602,0.994,-0.920,-66.589,88.379,-3.235
-0.715,0.376,-0.552,-109.497,88.257,-3.723
-0.464,0.461,-0.684,-110.962,89.417,7.141
-0.350,0.671,-1.179,-116.211,87.341,2.869
-0.693,0.803,-1.349,-112.854,78.247,-3.906
-0.919,0.570,-1.362,-94.116,69.702,-2.197
-1.131,0.631,-1.766,-70.496,51.514,8.362
-1.280,1.088,-1.951,-40.955,24.963,10.986
-1.219,1.022,-1.791,1.465,-7.874,9.094
-0.792,0.668,-1.062,36.621,-33.691,9.155
-0.447,0.653,-1.096,72.815,-40.405,11.047
-0.518,0.999,-1.396,82.214,-41.382,4.578
-0.749,1.026,-1.720,67.261,-58.228,-13.000
-0.808,0.986,-1.513,53.223,-83.618,-20.813
-0.559,0.596,-0.830,30.884,-101.624,-21.851
-0.336,0.818,-1.024,33.142,-102.966,-18.250
-0.523,0.747,-0.814,5.920,-114.319,-24.231
-0.378,0.685,-0.113,3.845,-130.310,-23.926
0.135,0.602,-0.359,18.921,-128.601,-24.109
0.168,0.361,0.894,10.742,-104.309,-25.391

-0.318,0.899,-0.363,26.978,-7.874,-5.615
-0.319,0.896,-0.374,26.367,-7.874,-5.920
-0.328,0.890,-0.378,25.146,-8.545,-6.409
-0.332,0.900,-0.380,24.292,-8.484,-6.958
-0.342,0.917,-0.398,22.644,-8.240,-7.690
-0.360,0.937,-0.412,18.555,-8.179,-8.545
-0.371,0.944,-0.405,16.113,-8.545,-9.705
-0.374,0.934,-0.388,15.076,-9.460,-10.681
-0.371,0.910,-0.375,14.709,-10.437,-11.536
-0.371,0.882,-0.366,14.343,-11.536,-12.268
-0.371,0.867,-0.360,14.160,-12.878,-12.329
-0.369,0.868,-0.345,15.259,-14.038,-12.146
-0.366,0.869,-0.336,17.456,-14.893,-11.902
-0.362,0.869,-0.316,20.752,-15.442,-11.719
-0.354,0.868,-0.300,25.269,-15.686,-11.719
-0.340,0.856,-0.279,28.870,-15.320,-11.719
-0.321,0.838,-0.270,31.067,-14.404,-11.597
-0.298,0.819,-0.267,32.654,-13.123,-11.169
-0.283,0.818,-0.262,32.471,-12.329,-10.803
-0.278,0.820,-0.267,30.334,-11.475,-10.010
-0.273,0.832,-0.253,28.931,-10.254,-8.423
-0.274,0.830,-0.212,26.611,-8.728,-6.958
-0.279,0.846,-0.157,22.766,-7.263,-6.042
-0.267,0.828,-0.092,20.569,-6.470,-5.371
-0.211,0.816,-0.056,20.447,-5.432,-4.517
-0.191,0.828,-0.029,24.414,-3.662,-3.906
-0.167,0.832,-0.030,24.231,0.122,-3.662
-0.166,0.792,-0.018,23.437,4.456,-2.625
-0.176,0.817,-0.029,25.024,9.033,-0.061
-0.184,0.836,-0.089,26.245,13.062,2.197
-0.212,0.904,-0.157,24.231,16.113,3.296
-0.256,1.072,-0.211,21.912,18.311,2.991
-0.255,1.078,-0.307,17.395,19.470,1.404
-0.301,1.013,-0.363,2.197,20.020,-0.549
-0.367,1.053,-0.378,-17.395,20.203,-2.808
-0.418,1.092,-0.410,-30.640,17.883,-6.531
-0.458,1.081,-0.445,-34.424,12.817,-10.986
-0.488,1.068,-0.524,-29.480,5.798,-14.771
-0.497,1.106,-0.635,-17.761,-1.221,-17.761
-0.516,1.168,-0.717,-3.418,-8.545,-20.325
-0.507,1.162,-0.753,9.949,-16.174,-21.301
-0.504,1.154,-0.798,19.104,-23.804,-21.606
-0.538,1.123,-0.699,21.729,-30.579,-23.071
-0.510,1.095,-0.540,21.912,-34.668,-22.827
-0.488,1.066,-0.466,27.893,-38.452,-23.376
-0.490,1.038,-0.432,28.748,-40.710,-26.794
-0.506,1.051,-0.417,25.757,-43.518,-30.762
-0.520,1.063,-0.401,26.733,-45.776,-33.813
-0.536,1.081,-0.370,32.349,-48.096,-36.682
-0.542,1.099,-0.342,43.823,-50.842,-40.955
-0.532,1.060,-0.281,60.974,-53.223,-45.227
-0.519,1.068,-0.300,81.116,-54.382,-47.913
-0.501,1.089,-0.398,94.971,-55.603,-50.476
-0.468,1.066,-0.442,101.013,-59.509,-53.101
-0.407,1.029,-0.436,109.192,-65.674,-52.917
-0.312,1.016,-0.566,116.150,-72.144,-51.514
-0.229,1.023,-0.543,109.863,-77.515,-52.124
-0.147,0.964,-0.568,104.492,-84.778,-52.124
-0.075,0.954,-0.603,95.093,-91.553,-50.964
-0.034,0.948,-0.606,81.909,-97.229,-51.025
-0.008,0.909,-0.515,70.923,-104.675,-52.612
0.019,0.961,-0.366,65.247,-112.427,-54.199
0.042,1.076,-0.271,69.580,-118.591,-56.274
0.040,1.105,-0.123,80.383,-124.817,-59.692
0.026,1.068,0.062,100.037,-129.089,-61.401
0.039,0.896,0.427,112.671,-123.535,-61.890
0.025,0.621,0.854,108.765,-101.257,-60.608
0.034,0.480,1.317,103.210,-71.106,-56.335
0.122,0.435,1.605,103.149,-49.988,-50.842
0.087,0.448,1.616,103.210,-37.354,-48.950
0.083,0.476,1.583,103.577,-20.264,-47.302
0.118,0.538,1.348,104.919,-4.333,-43.945
0.125,0.661,0.983,106.384,0.916,-41.687
0.187,0.791,0.814,100.098,3.845,-41.809
0.228,0.861,0.804,101.746,9.460,-38.940
0.295,0.861,0.737,100.037,18.372,-31.494
0.298,0.883,0.552,103.088,25.635,-24.536
0.278,0.868,0.561,99.365,34.668,-22.888
0.277,0.928,0.450,87.830,44.861,-24.353
0.190,1.062,0.258,80.261,50.720,-30.457
0.090,1.014,0.314,58.350,57.068,-38.269
-0.020,1.113,0.357,37.720,66.284,-42.419
-0.078,1.259,0.533,38.269,74.402,-49.438
-0.009,1.210,0.614,37.964,85.693,-55.847
0.047,1.019,0.391,41.687,95.825,-57.922
0.038,1.040,0.022,37.415,102.295,-60.913
-0.123,1.060,-0.014,31.067,103.516,-67.810
-0.030,0.896,-0.228,21.606,104.736,-71.533
0.070,0.817,-0.737,31.921,94.543,-66.162
0.059,0.838,-1.208,37.720,81.116,-61.890
0.086,1.016,-1.584,49.072,51.880,-59.875
0.062,1.099,-1.533,55.237,14.160,-55.664
0.118,1.158,-1.103,65.186,-16.296,-51.636
0.076,0.941,-1.194,91.003,-38.757,-46.326
-0.068,0.661,-1.152,107.239,-70.862,-38.574
-0.095,0.575,-0.918,95.154,-101.135,-30.090
-0.443,0.569,1.198,24.963,-104.980,-28.137
0.062,0.692,1.489,-38.513,-48.523,-14.587
-0.025,0.173,0.672,3.357,-80.261,1.160
-0.155,0.658,0.198,54.138,-117.981,4.150
0.038,1.124,0.607,89.844,-136.902,-7.751
0.137,0.943,0.696,72.021,-134.094,-18.311
0.136,0.363,1.984,-9.216,-106.262,-11.902
0.392,0.374,2.977,-39.185,-43.640,7.446
0.438,0.656,2.956,26.733,-10.559,15.747
0.287,0.877,2.456,75.928,12.817,15.686
0.169,0.722,1.155,113.647,27.710,14.343
0.103,0.785,0.776,83.313,39.551,15.198
0.205,1.064,1.064,5.188,58.777,7.507
0.198,1.462,1.028,19.287,68.848,-8.606
0.279,1.405,1.207,19.714,81.787,-20.447
0.356,1.321,1.125,23.987,100.281,-23.621
0.439,1.217,-0.279,49.683,113.770,-28.442
-0.288,1.351,0.119,55.725,105.896,-45.288
-0.125,0.856,0.888,-34.607,124.756,-56.091
0.140,0.837,-0.764,8.179,123.901,-49.255
-0.144,0.617,-0.823,-20.691,114.319,-58.228
-0.222,0.514,-1.042,-74.768,111.755,-59.326
-0.179,0.480,-2.104,-32.410,67.993,-51.880

0.109,0.863,0.257,-104.187,-53.101,22.034
0.103,0.890,0.274,-104.004,-52.612,25.574
0.107,0.908,0.309,-99.915,-52.734,29.114
0.091,0.916,0.304,-93.018,-53.650,33.203
0.100,0.901,0.315,-89.111,-53.589,37.109
0.102,0.899,0.305,-87.769,-54.443,41.138
0.098,0.902,0.283,-88.379,-55.542,44.495
0.102,0.884,0.255,-88.501,-56.458,47.791
0.115,0.857,0.229,-88.745,-57.068,51.270
0.132,0.836,0.208,-88.623,-57.800,54.199
0.142,0.812,0.201,-86.975,-57.983,57.007
0.147,0.793,0.203,-86.853,-57.251,59.753
0.147,0.792,0.218,-86.365,-55.664,62.622
0.147,0.798,0.250,-85.022,-53.772,65.674
0.136,0.815,0.283,-84.045,-51.758,68.298
0.132,0.846,0.316,-83.984,-48.889,70.984
0.126,0.888,0.337,-86.426,-45.288,73.059
0.140,0.925,0.346,-90.149,-41.504,74.036
0.152,0.945,0.354,-93.567,-37.415,73.486
0.164,0.928,0.353,-95.886,-33.386,72.693
0.166,0.899,0.341,-99.426,-27.954,71.533
0.176,0.873,0.295,-106.079,-20.691,69.641
0.191,0.825,0.259,-117.310,-12.634,67.627
0.177,0.798,0.209,-125.366,-6.042,65.674
0.156,0.807,0.191,-130.066,0.000,65.430
0.153,0.817,0.204,-132.202,6.409,67.261
0.122,0.829,0.214,-135.986,12.634,68.176
0.089,0.839,0.230,-140.198,19.409,69.275
0.041,0.857,0.214,-146.912,26.367,68.542
0.000,0.961,0.156,-152.283,33.264,66.711
-0.036,1.120,0.019,-154.358,41.077,63.171
-0.057,1.203,-0.090,-158.386,46.265,56.763
-0.058,1.209,-0.207,-160.339,49.866,50.537
-0.045,1.176,-0.337,-156.128,52.612,45.166
-0.037,1.150,-0.445,-152.039,55.115,39.368
-0.026,1.086,-0.569,-147.522,54.932,33.447
-0.033,1.029,-0.744,-132.385,52.612,28.687
-0.109,0.981,-0.891,-111.877,48.157,24.475
-0.184,0.947,-1.020,-86.914,40.710,25.146
-0.373,0.931,-1.428,-61.340,30.640,29.297
-0.557,0.857,-1.170,-70.923,19.897,32.104
-0.601,0.851,-1.383,-72.327,0.488,40.344
-0.548,1.185,-1.379,-50.903,-28.748,44.006
-0.417,1.205,-0.789,-26.367,-57.068,45.349
-0.294,1.127,-0.562,-11.353,-67.444,47.546
-0.322,1.025,0.330,-37.415,-57.983,41.626
-0.386,1.127,0.768,-68.115,-43.579,35.461
-0.417,1.481,0.813,-72.083,-26.123,22.949
-0.328,1.243,0.589,-67.932,-8.911,8.545
-0.253,0.973,0.444,-57.922,2.502,3.174
-0.160,0.893,0.493,-31.250,13.062,5.005
-0.051,0.791,0.620,-7.751,28.687,12.146
0.035,0.695,0.739,-8.850,46.692,17.700
0.068,0.636,0.476,-7.874,67.505,18.677
-0.021,0.659,0.322,-13.672,85.938,17.639
-0.069,0.851,0.400,-11.841,100.769,17.700
-0.017,0.881,0.308,3.052,114.502,17.212
-0.053,1.172,-0.282,3.418,128.235,14.221
-0.192,1.330,-0.509,-6.104,139.343,2.930
-0.232,1.315,-0.876,-55.786,146.790,-4.456
-0.819,1.236,-1.641,-79.224,135.010,-11.841
-1.157,0.782,-0.878,-139.954,132.080,-16.174
-0.930,1.211,-2.015,-127.197,112.610,-12.817
-1.211,1.184,-2.476,-136.597,84.961,-31.372
-1.282,-0.035,-2.431,-182.678,68.909,-30.701
-1.253,0.511,-2.390,-158.813,24.170,-14.709
-0.739,0.265,-1.478,-56.335,-23.193,-13.672
-0.350,0.351,-1.322,31.067,-40.100,1.038
-0.473,0.825,-1.326,91.187,-33.264,1.709
-0.527,1.316,-1.626,95.276,-30.212,-4.333
-0.785,1.151,-0.950,49.500,-49.561,-12.329
-0.604,0.768,-0.948,8.118,-68.298,-6.775
-0.387,0.880,-1.272,-8.667,-89.172,-4.211
-0.238,0.902,-1.433,-7.385,-120.422,-8.606
0.096,0.226,-0.259,-16.663,-148.254,-6.897
0.317,0.507,-0.101,24.292,-153.748,4.944
0.154,0.485,0.978,39.978,-131.104,1.343
0.386,0.509,1.187,19.165,-107.971,16.968
0.326,0.693,1.772,44.006,-79.102,25.574
0.267,0.531,2.380,28.198,-36.499,35.645
0.182,0.734,1.530,45.166,8.423,45.471
-0.165,0.817,0.759,59.875,40.344,44.373
-0.528,0.976,0.777,38.208,63.660,43.030
-0.363,0.988,0.292,32.227,84.351,44.067
-0.365,1.232,0.269,-13.062,93.994,37.659
-0.198,1.197,-0.043,-61.523,109.924,27.588
-0.895,1.052,-1.474,-92.651,115.234,6.775
-1.271,0.909,-0.972,-141.785,114.563,-9.399
-0.985,0.968,-1.878,-110.779,96.436,-7.080
-0.930,1.053,-2.252,-93.750,75.317,-22.888
-0.899,0.439,-2.468,-84.534,58.655,-28.992
-1.087,0.637,-2.770,-46.204,30.029,-20.386
-0.830,0.827,-2.173,17.761,-9.949,-24.170
-0.344,0.375,-1.440,48.645,-37.537,-22.339
-0.190,0.745,-1.324,51.331,-37.964,-19.226
-0.483,1.037,-0.462,-4.944,-37.415,-29.907
-0.506,0.358,-0.004,-81.665,-42.603,-31.006
-0.522,0.602,-0.679,-86.060,-54.382,-21.301
-0.483,0.520,-1.113,-67.383,-78.186,-24.902
-0.292,0.453,-1.127,-12.939,-107.666,-22.034
0.202,0.099,-0.283,39.185,-121.460,-7.629
0.263,0.495,-0.023,89.783,-102.722,6.042
0.250,0.235,1.102,66.284,-78.979,16.052
0.292,0.392,1.539,65.002,-53.711,34.851
0.383,0.484,1.623,65.857,-22.156,41.016
0.270,0.737,0.560,64.697,10.742,41.748
-0.209,0.969,0.037,38.025,31.616,36.194
-0.468,1.199,0.024,3.601,43.884,34.424
-0.325,1.275,0.026,13.184,52.612,31.921
-0.048,1.228,-0.191,-3.906,64.148,24.475
-0.356,1.457,-1.676,-15.015,69.275,10.254
-1.055,1.499,-0.843,-62.561,69.824,-8.728
-0.836,0.822,-1.087,-89.539,71.228,-12.939
-0.461,0.846,-1.324,-107.727,64.331,-19.653
-0.454,0.584,-1.541,-115.234,52.856,-31.311
-0.611,0.432,-1.807,-119.385,40.039,-35.156
-0.921,0.274,-2.184,-86.426,17.151,-28.809
-0.877,0.514,-1.526,-26.794,-10.620,-17.578
-0.355,0.135,-0.660,39.307,-26.428,-7.202

-0.017,1.042,-0.504,159.119,-60.547,-53.162
0.013,1.014,-0.435,173.828,-59.753,-56.885
0.047,0.940,-0.305,183.716,-58.899,-58.594
0.093,0.884,-0.214,191.284,-56.702,-59.082
0.120,0.850,-0.063,191.772,-53.162,-60.242
0.163,0.928,-0.030,195.129,-50.537,-61.890
0.164,0.965,0.045,195.129,-48.096,-66.040
0.188,0.931,0.114,185.730,-44.189,-70.496
0.218,0.982,0.135,192.749,-41.443,-70.801
0.232,1.001,0.188,205.627,-38.330,-72.815
0.261,0.958,0.235,224.365,-35.217,-73.425
0.276,0.926,0.286,241.943,-30.090,-73.303
0.277,0.892,0.288,252.075,-22.766,-73.181
0.280,0.871,0.241,256.653,-15.381,-73.914
0.290,0.806,0.257,252.686,-8.850,-73.853
0.305,0.758,0.235,256.531,0.366,-73.120
0.311,0.677,0.229,247.986,4.822,-74.280
0.333,0.683,0.238,235.352,6.470,-76.294
0.332,0.739,0.151,224.854,7.202,-75.928
0.326,0.782,0.121,211.792,8.972,-74.341
0.313,0.806,0.143,196.045,10.681,-72.449
0.308,0.767,0.150,178.467,11.353,-70.740
0.337,0.717,0.036,161.926,10.010,-68.481
0.354,0.680,-0.045,142.212,7.690,-67.322
0.379,0.670,-0.202,117.554,4.822,-66.895
0.340,0.703,-0.238,95.520,-2.075,-66.162
0.235,0.782,-0.093,77.148,-9.033,-64.941
0.059,0.857,0.082,73.303,-14.893,-62.805
-0.035,0.858,0.194,69.763,-20.325,-58.105
-0.036,0.739,0.334,46.570,-20.325,-54.138
-0.063,0.610,0.294,29.297,-23.560,-56.152
-0.029,0.612,0.304,40.344,-38.818,-57.312
0.048,0.594,0.271,55.176,-51.941,-49.438
0.076,0.519,0.221,63.110,-60.791,-40.344
0.077,0.465,0.295,54.932,-65.796,-29.541
0.153,0.479,0.495,42.236,-70.007,-18.188
0.220,0.507,0.678,28.198,-68.298,-8.789
0.269,0.500,0.871,24.414,-62.683,-1.465
0.275,0.557,1.059,29.907,-57.739,5.554
0.229,0.639,1.482,40.771,-53.040,10.132
0.272,0.609,1.807,51.880,-41.199,11.780
0.347,0.499,1.921,59.204,-21.179,13.000
0.421,0.483,1.906,68.848,2.197,18.066
0.466,0.543,1.873,88.501,27.283,21.790
0.481,0.652,1.567,115.173,47.546,22.400
0.431,0.697,1.315,132.568,57.800,20.935
0.422,0.737,1.199,125.305,67.566,18.555
0.429,0.867,1.275,115.051,73.120,15.991
0.442,0.914,1.428,115.356,87.830,9.155
0.506,0.787,1.377,105.164,101.257,5.249
0.591,0.751,1.015,98.511,110.046,6.531
0.428,0.682,0.698,94.116,110.046,3.540
0.411,0.779,0.868,70.557,118.958,-2.808
0.361,0.911,-0.141,92.224,118.774,-12.329
0.013,0.745,0.331,63.904,107.239,-27.100
0.251,0.808,0.160,10.925,118.103,-31.921
0.308,0.659,-0.731,49.438,102.844,-31.677
0.199,0.546,-0.731,0.854,87.769,-37.170
0.301,0.756,-1.202,-14.526,72.815,-40.588
0.152,1.114,-1.475,6.775,38.086,-50.354
0.086,1.044,-1.590,10.559,-6.836,-54.504
0.010,0.627,-0.892,-32.654,-42.419,-44.373
0.101,0.290,-0.394,-65.369,-33.325,-31.982
0.244,0.386,-0.374,-41.443,-14.465,-22.644
0.298,0.475,-0.353,-9.033,-25.757,-20.081
0.380,0.485,-0.179,-8.850,-50.293,-16.907
0.046,0.574,1.068,-74.097,-41.992,5.066
0.074,0.308,1.683,-127.380,-6.897,7.507
0.182,0.315,0.839,0.061,-34.058,9.277
0.238,0.622,0.155,60.669,-61.646,7.996
0.199,0.756,-0.187,54.321,-71.472,-4.150
0.276,0.628,0.469,13.855,-94.421,-10.986
0.543,0.738,0.759,-9.399,-95.520,-8.423
0.551,0.487,1.607,-10.803,-85.876,-4.944
0.518,0.435,2.599,-27.100,-54.504,1.770
0.537,0.433,3.189,-9.094,-16.113,9.949
0.484,0.485,2.967,49.927,7.812,12.390
0.401,0.551,1.912,107.544,19.531,8.789
0.356,0.608,1.231,101.318,23.682,5.859
0.341,0.371,1.819,16.785,30.151,1.038
0.436,0.527,1.557,25.513,39.063,3.052
0.534,0.713,1.686,65.552,55.298,4.578
0.727,0.673,1.493,78.186,80.078,6.714
0.826,0.772,0.402,105.469,93.262,10.498
0.516,0.715,0.424,101.440,89.722,1.038
0.551,0.576,0.820,24.170,94.666,-8.789
0.612,0.788,-0.228,42.480,96.069,-13.672
0.304,0.669,-0.105,16.052,87.036,-23.132
0.146,0.552,-0.175,-30.823,82.397,-26.733
-0.003,0.770,-1.256,-2.014,60.974,-28.198
-0.206,0.877,-1.416,0.793,18.921,-35.522
-0.072,0.780,-1.485,-16.418,-27.893,-30.457
0.207,0.735,-0.812,-37.598,-60.608,-15.869
0.596,0.401,-0.446,-66.223,-57.922,-6.592
0.495,0.214,-0.698,-51.086,-42.053,-6.104
0.432,0.338,-0.448,-18.616,-44.861,-14.038
0.406,0.525,-0.497,14.404,-67.993,-13.550
0.345,0.354,0.095,0.061,-99.243,-6.348
0.207,0.426,1.515,-84.412,-86.731,7.324
0.162,0.546,0.992,-56.824,-47.974,7.019
0.100,0.435,0.278,34.668,-91.675,6.348
0.243,0.619,0.520,26.306,-116.699,3.967
0.415,0.728,0.929,-25.696,-101.318,-7.019
0.436,0.612,1.862,-38.452,-78.369,-8.606
0.677,0.557,2.571,-41.870,-41.748,-2.014
0.766,0.522,2.840,0.244,-19.897,1.526
0.727,0.561,2.729,43.335,6.104,2.625
0.625,0.544,2.085,72.510,26.428,2.563
0.519,0.492,1.388,66.406,29.419,-2.136
0.332,0.200,1.418,14.648,24.597,-10.132
0.301,0.173,1.495,-15.747,26.062,-11.719
0.341,0.395,1.458,-6.531,35.339,-9.277
0.392,0.486,1.508,2.747,48.462,-9.705
0.541,0.420,1.522,3.967,65.979,-6.531
0.710,0.509,0.890,20.996,77.881,-3.174
0.574,0.682,0.041,48.950,73.181,-6.836
0.368,0.624,0.717,12.756,65.796,-16.418
0.352,0.462,0.620,-6.775,67.322,-18.311
0.465,0.510,0.266,12.878,68.726,-13.123

0.423,1.015,0.339,-45.959,-2.014,44.067
0.393,1.020,0.340,-50.049,-3.845,43.518
0.367,1.026,0.344,-53.284,-5.005,42.847
0.350,1.024,0.356,-56.091,-5.493,42.297
0.337,1.012,0.365,-58.350,-5.371,41.870
0.331,0.996,0.370,-59.998,-4.456,41.687
0.325,0.979,0.348,-62.500,-2.686,41.992
0.329,0.962,0.298,-63.232,-2.136,43.396
0.331,0.947,0.270,-63.660,-2.258,46.265
0.329,0.938,0.248,-63.171,-2.075,49.927
0.308,0.927,0.233,-62.378,-2.197,54.016
0.281,0.917,0.217,-63.416,-2.625,58.105
0.253,0.938,0.200,-66.956,-2.197,61.340
0.232,1.008,0.184,-70.374,-1.526,63.171
0.209,1.043,0.176,-74.890,-1.221,63.232
0.179,1.027,0.158,-78.613,-0.732,62.378
0.169,0.990,0.174,-84.717,-0.061,62.622
0.160,0.938,0.197,-89.233,1.282,63.843
0.142,0.863,0.278,-91.736,3.784,65.430
0.134,0.847,0.324,-90.820,7.080,67.932
0.133,0.910,0.306,-82.764,9.949,69.641
0.141,0.926,0.237,-76.599,11.902,69.824
0.159,0.917,0.195,-74.341,12.451,72.571
0.196,0.893,0.251,-79.529,15.076,77.698
0.240,0.986,0.185,-78.186,19.653,83.130
0.254,1.016,0.115,-77.698,23.132,83.374
0.231,0.977,0.122,-80.933,26.001,80.200
0.217,0.921,0.135,-81.543,27.466,78.735
0.186,0.872,0.178,-81.421,28.870,77.637
0.164,0.889,0.131,-78.491,29.785,76.416
0.121,0.832,0.205,-82.520,31.189,74.829
0.101,0.889,0.173,-76.294,33.142,75.867
0.064,1.010,0.123,-71.838,35.645,76.782
0.051,1.117,0.060,-80.872,39.185,74.646
0.048,1.184,-0.008,-91.431,41.809,70.923
0.025,1.258,-0.119,-96.252,44.983,67.810
0.021,1.304,-0.311,-96.497,47.363,64.392
0.017,1.257,-0.626,-95.459,46.692,60.364
0.040,1.144,-0.945,-95.886,43.274,56.702
0.080,1.058,-1.223,-118.286,35.095,58.594
0.005,1.088,-1.131,-134.338,23.315,56.030
-0.111,1.088,-0.786,-131.470,10.559,51.575
-0.207,1.023,-0.542,-124.512,1.282,50.171
-0.317,1.041,-0.115,-134.644,7.080,47.485
-0.332,1.247,0.168,-152.283,21.912,41.260
-0.326,1.231,0.502,-162.842,29.053,36.499
-0.357,0.970,0.498,-154.724,28.992,44.495
-0.338,0.618,0.195,-126.892,22.156,59.143
-0.325,0.505,-0.187,-90.576,12.329,70.984
-0.269,0.659,-0.701,-50.171,-1.648,75.989
-0.152,0.911,-1.069,-16.357,-28.137,74.219
-0.050,1.240,-1.300,13.306,-55.115,72.815
-0.057,1.463,-1.264,46.570,-78.369,76.172
-0.018,1.394,-0.852,54.504,-93.689,82.153
0.025,1.497,-0.483,52.551,-92.529,84.412
-0.088,1.471,0.059,37.354,-95.703,72.937
-0.167,1.406,0.694,18.860,-104.065,58.411
-0.092,1.304,0.955,11.292,-93.872,44.922
-0.057,1.021,1.330,-11.597,-76.416,30.579
0.063,0.781,1.601,-30.273,-59.753,25.696
0.206,0.710,1.479,-44.067,-30.884,21.423
0.196,0.755,0.942,-46.448,-2.747,15.686
0.004,0.759,0.429,-47.424,14.465,9.583
-0.203,0.515,0.521,-68.420,21.667,8.118
-0.130,0.778,0.463,-50.354,30.701,13.794
0.061,0.887,0.214,-38.269,46.631,11.536
0.128,0.940,0.245,-31.677,64.819,8.484
0.224,0.480,0.327,-32.898,89.722,9.583
0.164,0.126,-1.234,-54.749,109.131,15.198
0.075,0.882,-0.150,-145.264,104.675,12.451
-0.557,0.248,-0.129,-125.549,130.859,-4.089
-0.374,0.506,-1.322,-127.869,138.794,14.832
-1.165,-0.325,-0.846,-157.715,143.555,11.169
-1.072,0.367,-1.758,-152.649,140.015,21.545
-1.238,0.155,-2.346,-118.103,98.389,20.752
-1.317,0.388,-2.633,-130.432,75.500,28.076
-1.439,0.384,-2.578,-92.041,37.231,34.729
-1.093,0.347,-1.557,-52.307,15.259,39.734
-0.590,0.535,-1.142,16.113,10.803,46.448
-0.343,1.164,-1.326,66.284,5.554,43.335
-0.638,0.882,-1.041,42.480,-9.399,25.635
-0.643,0.704,-0.971,25.146,-19.897,19.836
-0.549,0.525,-1.256,45.715,-35.461,25.330
-0.466,0.450,-1.402,41.565,-60.364,30.823
-0.439,0.522,-0.346,6.958,-83.740,36.377
-0.104,0.675,0.435,-0.244,-72.388,45.715
-0.118,0.454,0.286,-18.921,-52.673,40.100
-0.376,1.050,-0.390,-0.732,-63.660,37.903
-0.054,1.007,-0.667,14.709,-78.979,32.410
0.244,0.570,-0.092,-15.503,-90.576,29.663
0.246,0.888,0.266,-20.935,-73.120,34.302
0.122,0.898,1.005,-51.514,-48.218,34.302
0.165,1.077,1.106,-45.654,-27.405,35.889
0.286,0.913,0.914,-15.442,-3.906,31.738
0.264,0.703,0.948,-22.644,15.259,27.954
0.103,0.775,0.569,-23.499,33.813,26.489
-0.172,0.773,0.197,-36.682,42.664,24.292
-0.350,0.799,0.129,-49.438,45.166,22.766
-0.255,0.706,-0.143,-46.326,50.415,24.414
-0.220,0.770,-0.186,-39.795,55.725,24.353
-0.061,0.787,-0.083,-59.265,69.641,20.752
0.051,0.729,-0.143,-76.599,87.952,18.372
-0.020,1.540,-1.530,-51.453,99.365,15.991
-0.951,1.283,-1.035,-33.875,86.304,-0.427
-1.484,0.278,-0.738,-81.360,78.186,3.357
-1.121,0.696,-1.550,-54.321,67.749,20.447
-1.021,1.150,-1.880,-29.297,51.819,7.019
-1.229,0.960,-1.973,-43.213,36.560,-3.174
-1.618,0.914,-2.126,-48.340,12.085,4.395
-1.598,0.983,-1.812,-20.142,-25.330,-0.549
-1.020,0.716,-1.267,23.193,-46.265,-8.972
-0.724,1.127,-0.744,78.369,-44.067,-10.742
-0.700,1.256,-0.338,99.792,-28.809,-28.870
-0.687,0.962,-0.250,69.946,-21.484,-48.340
-0.571,0.702,-0.279,62.134,-21.301,-52.795
-0.460,0.511,-0.518,53.711,-28.870,-47.241
-0.413,0.516,-0.862,40.771,-56.213,-44.556
-0.310,0.504,-0.927,35.889,-81.787,-39.795
-0.190,0.371,-0.537,25.085,-99.609,-29.602

-0.294,0.879,-0.413,-1.648,-2.625,-0.427
-0.291,0.890,-0.430,-0.671,-2.686,-0.671
-0.290,0.887,-0.438,-0.427,-2.869,-0.854
-0.289,0.891,-0.439,0.000,-3.235,-0.732
-0.290,0.895,-0.432,1.038,-3.601,-0.854
-0.291,0.887,-0.422,1.282,-4.333,-1.099
-0.295,0.880,-0.413,1.587,-4.761,-1.099
-0.299,0.878,-0.402,2.014,-5.127,-1.221
-0.302,0.876,-0.386,2.319,-5.493,-1.465
-0.302,0.874,-0.370,2.747,-5.798,-1.709
-0.300,0.871,-0.360,2.991,-5.676,-2.075
-0.297,0.865,-0.357,3.296,-5.188,-2.502
-0.291,0.856,-0.358,2.991,-4.700,-2.686
-0.286,0.854,-0.366,1.892,-4.395,-2.991
-0.283,0.858,-0.384,0.793,-4.089,-2.930
-0.280,0.868,-0.403,-0.122,-4.028,-3.052
-0.283,0.874,-0.413,-0.244,-4.211,-2.930
-0.283,0.875,-0.419,-0.122,-4.333,-2.747
-0.284,0.871,-0.418,0.427,-4.211,-2.380
-0.286,0.861,-0.408,0.793,-4.333,-2.075
-0.289,0.854,-0.391,1.221,-4.578,-1.587
-0.293,0.843,-0.377,1.282,-4.395,-1.160
-0.295,0.832,-0.367,0.549,-4.211,-0.977
-0.298,0.842,-0.364,-0.488,-4.089,-0.854
-0.299,0.849,-0.375,-1.099,-4.089,-0.793
-0.300,0.861,-0.381,-2.014,-4.578,-0.916
-0.297,0.881,-0.401,-1.587,-5.005,-0.854
-0.289,0.885,-0.423,-1.343,-5.615,-0.793
-0.284,0.884,-0.434,-1.404,-5.981,-0.488
-0.284,0.881,-0.440,-1.038,-6.592,-0.061
-0.288,0.903,-0.450,0.488,-7.019,0.366
-0.307,0.930,-0.450,4.150,-7.507,0.732
-0.330,0.931,-0.446,7.996,-8.118,0.854
-0.337,0.920,-0.442,11.902,-9.033,1.221
-0.321,0.891,-0.459,15.259,-10.010,1.892
-0.301,0.892,-0.510,15.320,-12.329,2.930
-0.301,0.936,-0.555,13.184,-15.015,3.723
-0.302,1.020,-0.644,12.512,-16.785,5.188
-0.332,1.164,-0.705,14.526,-19.226,5.920
-0.414,1.249,-0.721,19.592,-23.682,4.578
-0.486,1.125,-0.654,25.269,-31.250,4.517
-0.522,1.075,-0.758,34.973,-38.696,6.104
-0.461,0.820,-0.587,28.259,-48.706,5.981
-0.375,0.740,-0.491,29.846,-59.448,10.132
-0.284,0.628,-0.504,35.034,-71.899,11.108
-0.256,0.762,-0.398,39.368,-84.351,11.597
-0.263,0.659,-0.150,30.701,-80.933,11.475
-0.232,0.585,0.195,31.494,-70.801,16.602
-0.126,0.657,0.296,41.748,-63.538,19.104
-0.094,0.741,0.255,33.997,-58.289,17.273
-0.104,0.751,0.212,17.334,-49.438,16.113
-0.170,0.626,0.234,5.005,-41.504,15.076
-0.150,0.657,0.244,-2.869,-31.433,15.991
-0.110,0.789,0.250,-8.301,-20.081,15.564
-0.119,0.873,0.254,-17.517,-8.423,12.390
-0.135,0.983,0.156,-27.954,2.991,7.935
-0.196,1.137,0.032,-34.790,12.451,2.197
-0.270,1.117,-0.008,-43.579,18.433,-4.639
-0.310,1.087,0.102,-48.218,24.475,-9.460
-0.249,1.146,-0.006,-34.912,32.776,-12.207
-0.323,0.961,0.181,-31.433,34.851,-15.015
-0.167,0.905,0.229,-25.024,45.715,-12.390
-0.065,0.736,0.031,-8.240,62.378,-12.329
-0.050,0.903,-0.081,-0.366,77.026,-11.780
-0.182,0.805,-0.116,14.526,87.036,-11.536
-0.126,1.074,-0.144,30.518,90.698,-4.211
-0.112,1.048,-0.542,32.654,95.703,-3.540
-0.281,1.126,-0.616,-0.549,101.563,-6.165
-0.494,1.327,-0.765,-23.682,104.370,-9.216
-0.672,1.059,-1.132,-53.223,97.412,-15.015
-0.908,0.993,-1.129,-97.961,87.830,-19.592
-0.976,0.787,-1.224,-135.498,74.829,-26.550
-1.152,1.050,-1.662,-142.944,38.208,-37.415
-1.182,1.526,-2.081,-130.554,4.883,-54.016
-1.037,1.000,-2.143,-103.821,-34.363,-64.880
-0.592,0.858,-2.137,-54.626,-54.138,-56.763
-0.479,0.998,-1.582,-24.597,-51.697,-53.101
-0.434,0.828,-1.273,-16.602,-53.650,-51.270
-0.623,0.519,-0.733,-31.189,-49.805,-40.771
-0.602,0.718,-1.744,20.569,-93.567,-29.297
-0.518,0.826,-1.942,64.270,-138.916,-34.973
-0.566,0.773,-2.189,65.735,-167.419,-38.147
-0.606,0.422,0.373,35.156,-161.133,-33.142
-0.165,-0.177,-0.482,50.598,-115.845,-11.353
-0.456,0.016,0.353,46.509,-144.775,-6.470
-0.157,1.181,-0.094,91.370,-170.715,-9.644
0.026,0.781,1.483,54.749,-136.475,-28.625
0.015,0.197,1.074,39.368,-100.586,-19.531
0.032,0.207,1.220,59.998,-98.633,-2.319
0.142,0.675,1.326,44.678,-69.275,4.028
0.286,0.561,1.419,34.180,-43.762,2.808
0.325,0.609,1.368,12.207,-17.517,10.193
0.278,1.148,0.720,39.001,1.770,17.395
0.116,1.249,0.407,31.128,12.756,12.146
-0.029,1.214,0.178,24.658,16.785,8.423
-0.015,1.080,0.214,27.649,23.621,8.545
0.168,0.988,0.200,26.611,42.175,11.292
0.350,0.858,0.299,14.221,64.209,14.282
0.520,0.840,-0.464,-12.634,79.956,15.198
0.069,1.231,0.087,-46.936,77.759,9.155
0.116,1.510,-0.496,-30.029,84.534,1.526
-0.219,0.727,-0.044,-74.463,90.088,-16.479
-0.126,0.827,-0.282,-86.670,106.201,-10.620
-0.193,0.920,-0.837,-87.830,104.858,-10.925
-0.605,1.128,-0.709,-96.985,109.680,-16.418
-0.942,0.842,-1.681,-101.257,96.069,-11.536
-1.402,1.269,-1.740,-91.797,69.824,-4.700
-1.197,0.931,-2.178,-33.203,29.358,-0.549
-0.974,0.877,-2.535,18.372,-28.198,1.343
-0.887,0.947,-1.799,53.650,-57.190,1.648
-0.628,0.850,-1.301,93.567,-67.932,5.859
-0.353,1.012,-1.256,113.953,-61.951,6.836
-0.337,1.051,-0.842,88.989,-49.988,-4.150
-0.415,0.621,-0.940,68.604,-62.561,-9.399
-0.476,0.483,-1.105,78.613,-87.524,-6.653
-0.610,0.541,-1.370,97.656,-111.084,-6.287
-0.622,0.544,-0.941,98.816,-133.911,-6.470
-0.253,0.565,-0.647,99.182,-138.245,0.061
-0.005,0.259,-0.163,87.402,-117.798,5.066

-0.284,0.871,-0.418,0.427,-4.211,-2.380
-0.286,0.861,-0.408,0.793,-4.333,-2.075
-0.289,0.854,-0.391,1.221,-4.578,-1.587
-0.293,0.843,-0.377,1.282,-4.395,-1.160
-0.295,0.832,-0.367,0.549,-4.211,-0.977
-0.298,0.842,-0.364,-0.488,-4.089,-0.854
-0.299,0.849,-0.375,-1.099,-4.089,-0.793
-0.300,0.861,-0.381,-2.014,-4.578,-0.916
-0.297,0.881,-0.401,-1.587,-5.005,-0.854
-0.289,0.885,-0.423,-1.343,-5.615,-0.793
-0.284,0.884,-0.434,-1.404,-5.981,-0.488
-0.284,0.881,-0.440,-1.038,-6.592,-0.061
-0.288,0.903,-0.450,0.488,-7.019,0.366
-0.307,0.930,-0.450,4.150,-7.507,0.732
-0.330,0.931,-0.446,7.996,-8.118,0.854
-0.337,0.920,-0.442,11.902,-9.033,1.221
-0.321,0.891,-0.459,15.259,-10.010,1.892
-0.301,0.892,-0.510,15.320,-12.329,2.930
-0.301,0.936,-0.555,13.184,-15.015,3.723
-0.302,1.020,-0.644,12.512,-16.785,5.188
-0.332,1.164,-0.705,14.526,-19.226,5.920
-0.414,1.249,-0.721,19.592,-23.682,4.578
0.130,0.513,0.264,39.185,-103.149,-3.906
0.322,0.318,0.744,17.273,-80.994,2.197
0.315,0.443,0.785,28.137,-53.589,11.658
0.232,0.539,1.007,30.579,-26.611,14.465
0.109,0.732,0.795,35.034,-6.653,17.151
-0.044,1.045,0.367,35.950,11.658,15.137
-0.263,0.972,0.289,21.301,22.888,10.315
-0.264,1.008,0.032,22.888,30.823,11.353
-0.317,1.048,-0.059,51.147,34.058,10.071
-0.274,0.900,0.057,60.486,38.879,6.836
-0.123,0.737,0.092,67.932,45.898,7.690
0.035,0.469,0.192,41.748,61.584,10.864
0.114,0.881,-0.431,36.316,72.937,15.930
-0.224,0.894,-0.384,13.733,76.599,10.132
-0.401,0.830,-0.020,-20.142,84.351,8.423
-0.228,0.840,-0.416,-25.024,87.219,10.010
-0.171,0.966,-0.756,-50.598,90.515,7.385
-0.341,1.193,-0.993,-70.923,87.708,3.418
-0.589,1.015,-1.039,-86.365,79.773,0.854
-0.759,1.046,-1.342,-98.206,61.157,4.761
-0.984,1.488,-1.734,-84.778,33.386,2.625
-1.007,1.421,-1.689,-73.303,2.136,-6.409
-0.826,1.128,-1.365,-36.316,-27.527,-6.287
-0.527,0.863,-0.931,8.911,-43.945,-1.465
-0.235,0.735,-0.676,32.227,-41.321,0.061
-0.211,1.000,-0.795,37.598,-38.452,-0.488
-0.324,1.125,-0.735,26.550,-45.471,-6.897
-0.339,0.976,-0.957,24.475,-56.641,-8.118
-0.344,0.920,-0.951,24.780,-71.167,-5.249
-0.314,0.700,-0.644,18.127,-83.801,-4.150
-0.111,0.649,-0.588,24.292,-89.722,0.000
0.003,0.875,-0.811,36.194,-86.182,1.526
-0.139,0.776,-0.609,12.268,-87.891,-4.883
-0.249,0.677,-0.282,-0.183,-96.436,-4.700
-0.066,0.509,0.127,12.024,-99.731,-1.831
0.105,0.641,-0.156,32.532,-84.412,2.014
0.089,0.279,0.974,3.845,-61.768,-1.099
0.222,0.158,0.958,0.916,-35.400,10.498
0.157,0.200,1.026,5.066,-15.381,18.250
0.134,0.541,0.745,19.714,5.310,23.193
0.041,0.830,0.056,37.720,19.043,20.874
-0.146,0.866,-0.259,14.709,23.743,13.733
-0.261,0.870,-0.260,-0.977,23.682,15.198
-0.260,0.912,-0.322,13.428,24.902,22.644
-0.171,0.828,-0.368,10.315,29.419,26.367
-0.034,0.797,-0.450,0.122,38.208,27.832
0.014,0.889,-0.483,-9.888,46.509,26.733
-0.057,1.101,-0.747,-20.813,46.326,22.217
-0.257,1.087,-0.567,-41.382,42.664,15.930
-0.394,1.030,-0.567,-55.664,41.809,11.475
-0.497,1.007,-0.542,-58.411,40.222,5.737
-0.510,0.965,-0.668,-56.580,35.706,2.380
-0.479,1.037,-0.857,-51.331,27.893,1.099
-0.482,1.048,-0.955,-39.001,15.991,1.282
-0.498,1.004,-1.012,-26.672,3.235,2.502
-0.507,0.950,-0.919,-13.245,-8.362,4.944
-0.432,0.892,-0.650,5.005,-17.090,8.545
-0.262,0.800,-0.358,20.691,-18.860,11.963
-0.124,0.779,-0.172,23.743,-14.404,13.245
-0.062,0.878,-0.120,14.709,-6.531,11.719
-0.091,0.955,-0.160,-0.610,-0.916,8.972
-0.177,0.891,-0.163,-13.794,1.160,6.897
-0.185,0.848,-0.183,-19.775,2.625,7.202
-0.169,0.877,-0.298,-19.104,5.066,7.019
-0.168,0.883,-0.395,-22.461,9.338,3.540
-0.194,0.851,-0.475,-26.245,14.099,0.488
-0.254,0.916,-0.529,-28.015,18.005,-2.380
-0.310,0.966,-0.537,-20.691,18.433,-5.066
-0.335,0.985,-0.572,-9.399,17.456,-6.653
-0.340,0.996,-0.623,2.869,15.320,-8.057
-0.334,1.001,-0.646,12.512,12.024,-9.583
-0.333,0.980,-0.633,18.005,7.690,-10.193
-0.323,0.964,-0.602,20.935,3.357,-10.132
-0.310,0.958,-0.563,20.264,-0.916,-10.620
-0.297,0.939,-0.489,16.174,-3.967,-12.146
-0.271,0.908,-0.390,11.292,-5.859,-13.245
-0.232,0.862,-0.324,7.202,-5.981,-13.611
-0.186,0.841,-0.304,2.991,-5.554,-13.123
-0.172,0.859,-0.299,-1.221,-5.127,-11.536
-0.156,0.826,-0.289,-4.822,-4.883,-9.705
-0.145,0.837,-0.295,-6.226,-4.517,-7.324
-0.150,0.837,-0.280,-7.202,-2.502,-5.920
-0.152,0.836,-0.249,-9.521,0.549,-5.127
-0.156,0.838,-0.245,-9.949,3.906,-4.822
-0.165,0.865,-0.263,-9.155,7.507,-5.188
-0.181,0.896,-0.287,-8.423,10.742,-6.226
-0.194,0.905,-0.324,-8.789,13.916,-7.690
-0.206,0.903,-0.386,-9.094,16.541,-8.789
-0.228,0.922,-0.435,-8.179,18.494,-10.071
-0.252,0.922,-0.458,-7.324,19.043,-11.414
-0.275,0.898,-0.500,-6.042,19.348,-12.268
-0.289,0.862,-0.501,-5.615,19.531,-12.573
-0.275,0.841,-0.506,-5.371,18.555,-12.024
-0.262,0.828,-0.508,-4.028,16.357,-11.414
-0.249,0.846,-0.478,-3.540,13.672,-11.292
-0.237,0.847,-0.456,-3.357,11.230,-11.353
-0.231,0.838,-0.422,-3.296,9.766,-11.230

-0.299,0.849,-0.375,-1.099,-4.089,-0.793
-0.300,0.861,-0.381,-2.014,-4.578,-0.916
-0.297,0.881,-0.401,-1.587,-5.005,-0.854
-0.289,0.885,-0.423,-1.343,-5.615,-0.793
-0.284,0.884,-0.434,-1.404,-5.981,-0.488
-0.284,0.881,-0.440,-1.038,-6.592,-0.061
-0.288,0.903,-0.450,0.488,-7.019,0.366
-0.307,0.930,-0.450,4.150,-7.507,0.732
-0.330,0.931,-0.446,7.996,-8.118,0.854
-0.337,0.920,-0.442,11.902,-9.033,1.221
-0.321,0.891,-0.459,15.259,-10.010,1.892
-0.301,0.892,-0.510,15.320,-12.329,2.930
-0.301,0.936,-0.555,13.184,-15.015,3.723
-0.302,1.020,-0.644,12.512,-16.785,5.188
-0.332,1.164,-0.705,14.526,-19.226,5.920
-0.414,1.249,-0.721,19.592,-23.682,4.578
0.130,0.513,0.264,39.185,-103.149,-3.906
0.322,0.318,0.744,17.273,-80.994,2.197
0.315,0.443,0.785,28.137,-53.589,11.658
0.232,0.539,1.007,30.579,-26.611,14.465
0.109,0.732,0.795,35.034,-6.653,17.151
-0.044,1.045,0.367,35.950,11.658,15.137
-0.263,0.972,0.289,21.301,22.888,10.315
-0.264,1.008,0.032,22.888,30.823,11.353
-0.317,1.048,-0.059,51.147,34.058,10.071
-0.274,0.900,0.057,60.486,38.879,6.836
-0.123,0.737,0.092,67.932,45.898,7.690
0.035,0.469,0.192,41.748,61.584,10.864
0.114,0.881,-0.431,36.316,72.937,15.930
-0.224,0.894,-0.384,13.733,76.599,10.132
-0.401,0.830,-0.020,-20.142,84.351,8.423
-0.228,0.840,-0.416,-25.024,87.219,10.010
-0.171,0.966,-0.756,-50.598,90.515,7.385
-0.341,1.193,-0.993,-70.923,87.708,3.418
0.001,0.508,0.067,53.894,52.917,31.433
0.049,0.782,-0.065,52.612,58.167,32.532
0.106,0.793,-0.177,30.151,64.819,30.334
0.142,0.764,-0.297,4.333,75.439,31.189
0.137,1.033,-0.534,1.831,83.740,33.997
-0.335,1.394,-0.869,-11.108,83.252,28.076
-0.631,1.063,0.011,-38.635,94.727,19.531
-0.227,0.910,-0.669,-15.015,80.200,27.588
0.015,1.458,-1.480,-18.860,71.472,23.682
-0.579,1.814,-1.434,-54.016,66.345,7.874
-0.918,1.338,-1.189,-99.670,60.730,2.441
-0.798,1.283,-1.544,-82.275,30.823,12.695
-0.727,1.346,-1.517,-50.903,0.061,5.798
-0.610,1.027,-1.023,-35.461,-19.653,-1.038
-0.382,0.784,-0.766,-3.906,-30.884,1.892
-0.307,0.953,-0.794,26.245,-31.982,0.488
-0.491,1.407,-1.029,31.799,-30.029,-9.094
-0.663,1.329,-0.944,15.625,-37.720,-22.095
-0.613,1.026,-0.673,17.395,-52.490,-20.203
-0.409,0.823,-0.710,35.278,-63.354,-12.695
-0.354,0.859,-0.848,30.090,-69.458,-12.573
-0.339,0.956,-0.973,10.376,-82.581,-17.944
-0.372,0.881,-0.688,11.658,-108.337,-21.484
-0.056,0.960,-0.886,47.791,-124.146,-21.179
0.093,0.511,-0.639,52.612,-130.920,-28.259
0.258,0.007,0.244,27.649,-111.328,-23.254
0.316,0.020,0.426,36.804,-90.881,-3.479
0.265,0.214,0.496,55.420,-82.764,8.057
0.203,0.157,0.840,47.607,-65.308,16.846
0.110,0.203,0.945,54.199,-49.316,27.344
0.055,0.267,1.040,54.871,-22.888,33.813
0.050,0.447,0.744,59.082,-0.732,39.001
-0.022,0.697,0.433,83.496,14.038,42.114
-0.118,0.782,0.377,82.764,28.564,43.945
-0.166,0.781,0.414,61.707,48.889,46.448
-0.059,0.607,0.395,49.072,66.772,49.927
0.035,0.553,0.240,23.560,75.867,52.917
0.090,0.621,-0.044,-7.996,83.496,54.199
-0.031,0.781,-0.265,-48.035,92.773,52.368
-0.115,1.113,-0.809,-86.243,101.196,48.096
-0.464,1.036,-0.353,-128.662,103.210,41.077
-0.476,1.384,-0.603,-135.864,110.901,39.429
-0.498,1.340,-1.158,-145.813,107.422,27.222
-0.842,1.318,-1.389,-185.791,95.947,22.461
-0.942,1.242,-1.778,-178.467,74.402,16.968
-1.438,2.089,-1.991,-116.455,34.485,4.089
-0.978,1.824,-1.332,-88.074,3.235,-17.456
-0.627,1.006,-0.992,-30.945,-37.354,-25.940
-0.365,0.684,-0.491,12.573,-46.509,-22.217
-0.055,0.752,-0.482,21.912,-32.715,-19.836
-0.213,1.095,-0.636,10.742,-27.039,-26.001
-0.278,1.260,-0.682,-17.944,-26.001,-35.950
-0.337,1.137,-0.946,-22.461,-32.837,-37.842
-0.244,1.105,-1.028,-27.344,-41.382,-37.476
-0.293,0.927,-0.841,-26.611,-50.354,-35.034
-0.129,0.620,-0.681,-14.648,-53.711,-25.818
-0.050,0.789,-1.158,-11.902,-54.016,-19.531
-0.211,1.041,-1.220,-33.630,-62.500,-27.771
-0.254,0.906,-0.950,-39.185,-79.895,-31.311
-0.181,0.690,-0.404,-16.174,-95.520,-28.687
0.120,0.687,-0.678,7.874,-100.159,-26.794
0.099,0.313,0.145,4.883,-95.764,-29.358
0.306,0.229,0.646,-7.935,-71.228,-15.381
0.134,0.359,0.645,11.292,-50.781,-6.409
0.001,0.262,0.717,4.639,-34.058,-5.310
-0.048,0.193,0.648,7.080,-21.057,0.610
0.011,0.416,0.525,14.648,-3.418,7.507
-0.091,0.729,0.177,6.897,13.367,8.606
-0.185,0.811,-0.018,-1.221,21.423,7.996
-0.211,0.747,-0.032,5.859,26.001,11.841
-0.134,0.654,0.002,27.039,33.264,19.104
-0.030,0.754,-0.090,54.016,40.222,25.818
0.019,0.938,-0.227,78.613,45.471,27.161
0.033,0.750,-0.092,78.979,52.673,24.719
0.148,0.555,0.026,57.983,67.261,28.503
0.192,1.035,-0.526,50.171,77.637,34.119
-0.182,0.992,-1.031,26.611,79.163,28.870
-0.742,1.917,-0.117,34.424,84.351,23.376
-0.495,1.351,-0.328,4.456,90.759,11.597
-0.120,1.290,-0.844,-23.926,77.026,10.620
-0.243,1.490,-1.355,-57.922,70.313,1.343
-0.593,1.220,-1.551,-90.454,64.880,-10.803
-0.833,1.305,-1.269,-117.188,51.453,-11.108
-0.732,1.147,-1.503,-96.252,17.822,-13.123
-0.576,1.021,-1.252,-45.288,-16.724,-19.287

-0.300,0.861,-0.381,-2.014,-4.578,-0.916
-0.297,0.881,-0.401,-1.587,-5.005,-0.854
-0.289,0.885,-0.423,-1.343,-5.615,-0.793
-0.284,0.884,-0.434,-1.404,-5.981,-0.488
-0.284,0.881,-0.440,-1.038,-6.592,-0.061
-0.288,0.903,-0.450,0.488,-7.019,0.366
-0.307,0.930,-0.450,4.150,-7.507,0.732
-0.330,0.931,-0.446,7.996,-8.118,0.854
-0.337,0.920,-0.442,11.902,-9.033,1.221
-0.321,0.891,-0.459,15.259,-10.010,1.892
-0.301,0.892,-0.510,15.320,-12.329,2.930
-0.301,0.936,-0.555,13.184,-15.015,3.723
-0.302,1.020,-0.644,12.512,-16.785,5.188
-0.332,1.164,-0.705,14.526,-19.226,5.920
-0.414,1.249,-0.721,19.592,-23.682,4.578
0.130,0.513,0.264,39.185,-103.149,-3.906
0.322,0.318,0.744,17.273,-80.994,2.197
0.315,0.443,0.785,28.137,-53.589,11.658
0.232,0.539,1.007,30.579,-26.611,14.465
0.109,0.732,0.795,35.034,-6.653,17.151
-0.044,1.045,0.367,35.950,11.658,15.137
-0.263,0.972,0.289,21.301,22.888,10.315
-0.264,1.008,0.032,22.888,30.823,11.353
-0.317,1.048,-0.059,51.147,34.058,10.071
-0.274,0.900,0.057,60.486,38.879,6.836
-0.123,0.737,0.092,67.932,45.898,7.690
0.035,0.469,0.192,41.748,61.584,10.864
0.114,0.881,-0.431,36.316,72.937,15.930
-0.224,0.894,-0.384,13.733,76.599,10.132
-0.401,0.830,-0.020,-20.142,84.351,8.423
-0.228,0.840,-0.416,-25.024,87.219,10.010
-0.171,0.966,-0.756,-50.598,90.515,7.385
-0.341,1.193,-0.993,-70.923,87.708,3.418
0.001,0.508,0.067,53.894,52.917,31.433
0.049,0.782,-0.065,52.612,58.167,32.532
0.106,0.793,-0.177,30.151,64.819,30.334
0.142,0.764,-0.297,4.333,75.439,31.189
0.137,1.033,-0.534,1.831,83.740,33.997
-0.335,1.394,-0.869,-11.108,83.252,28.076
-0.220,1.278,-0.779,-8.667,-32.776,-30.762
-0.295,1.163,-0.991,-15.442,-47.119,-32.288
-0.293,0.965,-0.933,-16.174,-65.430,-29.968
-0.263,0.708,-0.633,-12.146,-79.956,-25.574
-0.016,0.762,-0.904,1.587,-86.853,-19.348
-0.072,0.853,-0.804,-5.920,-87.341,-21.179
-0.216,0.644,-0.467,-30.151,-90.698,-22.156
-0.138,0.567,-0.086,-21.301,-97.168,-17.212
0.063,0.627,-0.291,-0.671,-96.680,-14.648
0.004,0.358,0.327,4.822,-89.233,-15.869
0.239,0.273,0.698,7.751,-69.763,-6.653
0.303,0.383,0.537,30.945,-48.889,2.136
0.234,0.382,0.744,28.503,-27.954,3.540
0.179,0.503,0.615,33.508,-11.841,8.179
0.062,0.681,0.351,37.048,2.869,11.536
-0.041,0.652,0.261,33.203,13.855,12.512
-0.066,0.923,0.148,54.871,22.766,16.113
-0.089,0.998,0.074,54.199,31.250,15.747
-0.034,0.799,0.197,52.490,41.748,15.869
0.081,0.664,0.077,49.927,54.932,20.569
0.171,0.824,-0.302,33.813,65.552,23.071
-0.003,1.007,-0.493,8.118,68.298,19.531
-0.173,1.258,-0.527,-13.855,72.571,15.137
-0.267,1.124,-0.456,-30.579,74.829,11.414
-0.214,1.071,-0.706,-55.237,78.308,10.010
-0.292,1.011,-0.753,-82.153,75.073,7.568
-0.355,1.220,-1.072,-95.215,63.965,7.385
-0.563,1.268,-1.178,-94.055,46.997,6.042
-0.707,1.179,-1.254,-86.487,30.518,5.615
-0.781,1.200,-1.185,-53.040,5.676,5.554
-0.647,1.111,-0.796,-12.573,-17.578,2.502
-0.398,0.808,-0.466,35.095,-36.316,0.977
-0.225,0.734,-0.294,68.848,-36.682,3.113
-0.227,0.892,-0.462,91.003,-32.104,4.639
-0.207,1.134,-0.527,95.337,-29.663,0.000
-0.236,1.085,-0.601,92.102,-34.241,-6.775
-0.185,0.965,-0.498,89.417,-40.283,-6.653
-0.103,0.854,-0.449,95.459,-42.664,-2.686
-0.082,0.859,-0.345,94.421,-40.710,0.244
-0.129,0.884,-0.371,87.524,-38.696,0.671
-0.141,0.900,-0.411,74.707,-40.344,-1.526
-0.116,0.942,-0.318,63.538,-40.710,-4.028
-0.040,0.954,-0.328,61.096,-43.396,-7.568
0.010,0.959,-0.336,68.054,-47.424,-10.986
0.049,0.967,-0.293,74.646,-50.354,-14.099
0.067,0.960,-0.262,81.970,-53.528,-17.639
0.070,0.904,-0.151,91.919,-54.932,-20.996
0.094,1.025,-0.043,110.840,-53.040,-22.644
0.052,1.131,0.115,131.775,-47.729,-24.719
0.004,1.102,0.251,140.564,-38.574,-28.992
-0.034,0.978,0.322,145.813,-25.635,-31.860
-0.072,0.831,0.420,139.282,-10.742,-33.386
-0.100,0.765,0.268,122.803,7.507,-37.170
0.011,0.747,0.438,76.355,21.057,-38.879
0.104,0.929,0.234,57.617,39.490,-43.030
0.241,1.108,0.142,21.484,56.702,-50.781
0.299,1.260,0.097,-11.108,73.059,-61.523
0.331,1.354,-0.006,-28.931,75.684,-67.810
0.313,1.385,-0.069,-36.377,68.359,-71.045
0.279,1.334,-0.108,-51.758,66.956,-77.332
0.229,1.341,-0.007,-67.017,63.843,-83.984
0.211,1.287,0.009,-76.660,61.768,-92.468
0.159,1.130,-0.214,-60.913,55.908,-100.769
0.014,1.147,-0.427,-28.564,46.021,-105.652
-0.095,1.117,-0.525,-8.118,39.124,-109.009
-0.286,1.223,-0.504,31.616,29.724,-106.812
-0.317,1.104,-0.629,71.350,16.968,-100.342
-0.226,1.124,-0.970,117.004,-6.714,-87.463
-0.218,1.244,-1.119,144.287,-30.579,-76.233
-0.156,1.432,-0.732,151.184,-53.040,-66.772
-0.025,1.497,-0.552,176.514,-59.326,-56.885
0.081,1.425,-0.379,211.670,-57.617,-50.476
-0.041,1.343,-0.357,245.056,-57.800,-47.791
-0.065,1.050,-0.469,258.789,-70.740,-44.556
-0.072,0.731,-0.401,245.361,-82.581,-46.509
-0.129,0.635,-0.318,212.952,-89.600,-53.467
-0.153,0.555,0.081,146.973,-86.975,-57.678
-0.077,0.435,0.931,58.105,-56.702,-60.669
0.134,0.226,0.798,37.842,-40.466,-57.190
0.250,0.134,0.220,55.542,-62.195,-46.509

-0.414,1.249,-0.721,19.592,-23.682,4.578
0.130,0.513,0.264,39.185,-103.149,-3.906
0.322,0.318,0.744,17.273,-80.994,2.197
0.315,0.443,0.785,28.137,-53.589,11.658
0.232,0.539,1.007,30.579,-26.611,14.465
0.109,0.732,0.795,35.034,-6.653,17.151
-0.044,1.045,0.367,35.950,11.658,15.137
-0.263,0.972,0.289,21.301,22.888,10.315
-0.264,1.008,0.032,22.888,30.823,11.353
-0.317,1.048,-0.059,51.147,34.058,10.071
-0.274,0.900,0.057,60.486,38.879,6.836
-0.123,0.737,0.092,67.932,45.898,7.690
0.035,0.469,0.192,41.748,61.584,10.864
0.114,0.881,-0.431,36.316,72.937,15.930
-0.224,0.894,-0.384,13.733,76.599,10.132
-0.401,0.830,-0.020,-20.142,84.351,8.423
-0.228,0.840,-0.416,-25.024,87.219,10.010
-0.171,0.966,-0.756,-50.598,90.515,7.385
-0.341,1.193,-0.993,-70.923,87.708,3.418
0.001,0.508,0.067,53.894,52.917,31.433
0.049,0.782,-0.065,52.612,58.167,32.532
0.106,0.793,-0.177,30.151,64.819,30.334
0.142,0.764,-0.297,4.333,75.439,31.189
0.137,1.033,-0.534,1.831,83.740,33.997
-0.335,1.394,-0.869,-11.108,83.252,28.076
-0.220,1.278,-0.779,-8.667,-32.776,-30.762
0.354,0.937,-0.022,119.995,-37.292,-13.611
0.376,0.830,-0.027,129.578,-36.011,-13.123
0.333,0.733,0.287,101.379,-35.278,-8.728
0.251,0.777,0.365,71.716,-38.452,-3.845
0.308,0.700,0.274,64.575,-49.194,-4.578
0.322,0.568,0.298,32.471,-56.885,-5.005
0.328,0.601,0.302,6.165,-62.866,-5.127
0.321,0.542,0.338,-6.409,-68.176,-4.028
0.323,0.477,0.467,-13.123,-68.726,0.977
0.317,0.418,0.613,-4.639,-67.322,6.531
0.334,0.295,0.666,6.653,-65.308,9.888
0.304,0.218,0.941,18.860,-54.077,19.226
0.349,0.238,1.349,12.512,-33.813,29.541
0.419,0.574,1.387,20.752,-11.963,37.476
0.476,0.925,1.087,32.837,3.784,39.856
0.442,1.066,0.909,27.100,11.353,36.987
0.384,1.072,0.962,9.888,19.348,32.471
0.363,1.127,0.785,12.024,25.391,27.039
0.361,1.117,0.730,18.066,28.137,22.522
0.370,0.970,0.647,14.099,32.532,19.836
0.376,0.805,0.617,13.794,38.269,18.311
0.425,0.696,0.571,2.930,44.556,16.724
0.457,0.699,0.432,-8.972,47.791,15.503
0.445,0.769,0.355,-29.358,48.401,12.512
0.435,0.995,0.082,-46.631,47.424,8.667
0.343,1.109,-0.150,-59.509,43.274,2.014
0.228,1.131,-0.271,-72.815,36.987,-4.333
0.126,1.161,-0.362,-64.758,23.315,-7.812
0.063,1.097,-0.416,-43.335,5.554,-10.559
0.067,1.013,-0.355,-6.104,-16.907,-9.888
0.175,0.955,-0.134,35.034,-35.461,-6.714
0.331,0.735,0.079,60.669,-42.480,-3.174
0.384,0.682,0.054,75.134,-44.189,1.404
0.293,0.640,0.118,79.529,-45.715,0.916
0.351,0.584,0.490,54.749,-34.668,4.028
0.288,0.587,0.658,39.246,-23.437,16.052
0.207,0.469,0.503,38.574,-32.227,17.761
0.212,0.482,0.495,34.363,-38.818,19.775
0.243,0.551,0.384,18.250,-39.307,22.522
0.251,0.607,0.361,1.404,-40.710,23.560
0.251,0.599,0.405,-15.076,-43.762,24.353
0.253,0.633,0.432,-25.513,-44.922,26.001
0.259,0.686,0.520,-34.851,-40.405,29.968
0.285,0.635,0.616,-54.138,-32.166,34.973
0.316,0.555,0.721,-77.576,-21.240,39.856
0.335,0.604,0.781,-94.299,-8.606,44.800
0.332,0.762,0.781,-108.276,-0.305,46.143
0.322,0.982,0.670,-131.531,5.310,42.969
0.302,1.283,0.492,-151.978,10.620,33.875
0.230,1.475,0.301,-164.062,13.611,19.531
0.215,1.170,0.114,-209.351,15.320,6.714
0.282,1.258,0.582,-279.053,25.818,1.343
0.415,1.177,0.045,-240.051,34.546,-7.996
0.340,0.868,0.446,-267.944,32.471,-15.808
0.461,1.126,0.309,-270.447,43.274,-17.334
0.562,0.759,0.190,-319.641,53.101,-35.156
0.446,0.616,-0.092,-361.389,50.049,-42.480
0.000,0.369,0.054,-385.254,55.054,-35.400
-0.100,0.045,0.116,-395.142,62.439,-12.329
-0.016,0.063,-0.030,-410.461,65.186,2.380
0.165,0.223,-0.050,-425.049,68.298,2.014
0.136,0.097,-0.113,-437.195,62.378,1.282
0.038,0.235,-0.279,-409.119,59.265,5.127
0.135,0.302,-0.463,-367.737,57.800,11.475
0.187,0.202,-0.672,-321.838,52.734,17.456
0.107,0.271,-0.938,-248.291,48.706,28.564
0.044,0.773,-0.974,-151.794,47.241,44.067
0.074,0.843,-1.040,-93.506,43.762,54.565
0.056,1.073,-0.956,-32.593,37.109,61.462
0.039,1.199,-0.805,-2.686,37.048,65.918
0.106,1.155,-0.845,13.306,37.048,68.848
0.079,1.245,-0.685,32.349,32.166,68.970
0.116,1.366,-0.675,44.983,36.926,65.063
0.162,1.341,-0.969,39.551,42.542,55.298
0.095,1.413,-0.915,28.748,36.987,44.128
0.082,1.216,-0.903,24.780,27.588,32.776
0.080,1.046,-0.974,15.320,18.738,25.452
0.069,0.696,-0.943,-7.629,9.094,26.672
0.085,0.652,-0.850,-20.508,0.244,35.522
0.090,0.749,-0.800,-17.883,-5.981,44.678
0.197,0.861,-0.152,-21.057,-10.254,50.415
0.233,0.988,0.064,-30.884,-2.930,47.852
0.175,1.067,-0.170,-56.946,17.517,35.706
0.219,1.089,-0.720,-82.520,36.682,22.766
0.218,0.742,-0.514,-87.402,37.109,17.334
0.269,0.784,-0.453,-77.148,42.542,22.095
0.311,0.732,-0.290,-28.687,40.405,22.827
0.338,0.603,-0.237,-8.301,46.143,18.250
0.328,0.557,-0.188,-12.207,53.955,15.076
0.261,0.706,-0.437,-5.493,59.509,13.611
-0.043,0.889,-0.744,5.310,61.218,7.812
-0.127,0.831,-0.691,-21.851,54.749,4.456
-0.159,0.898,-0.705,-18.982,48.157,-0.427

-0.079,0.785,-0.722,77.942,2.869,-41.809
-0.097,0.572,-0.633,125.671,2.686,-33.203
-0.099,0.305,-0.707,178.711,1.282,-16.357
-0.108,0.181,-0.550,209.900,-1.099,3.906
-0.118,0.163,-0.686,254.028,-8.240,25.513
-0.276,0.379,-0.751,318.176,-26.428,45.288
-0.334,0.652,-0.778,360.657,-35.706,59.814
-0.387,0.837,-0.668,363.831,-35.095,70.251
-0.226,0.868,-0.746,388.611,-35.339,78.430
-0.165,0.777,-0.806,375.549,-34.058,75.500
-0.159,1.065,-0.317,336.975,-24.048,67.322
-0.083,0.951,0.003,296.326,-10.071,54.443
-0.174,0.921,0.127,276.245,-27.344,47.485
-0.146,1.004,0.325,250.488,-33.569,39.795
-0.048,1.218,0.352,226.440,-37.354,28.564
0.005,1.308,0.234,217.529,-44.556,19.287
0.043,1.161,0.101,191.589,-50.293,8.484
-0.020,0.797,0.120,132.263,-60.242,0.793
0.031,0.881,0.017,93.323,-60.852,1.404
-0.114,1.261,0.003,98.328,-62.256,2.380
-0.329,0.985,0.432,86.548,-57.251,-1.221
-0.251,0.609,0.403,124.634,-57.251,15.015
-0.224,0.653,0.157,179.260,-62.500,32.654
-0.135,0.706,0.095,192.688,-60.303,34.180
-0.171,0.697,0.190,192.932,-57.678,31.311
-0.194,0.709,0.396,209.778,-51.147,30.029
-0.167,0.703,0.495,236.328,-49.316,33.508
-0.143,0.665,0.589,256.409,-52.063,39.063
-0.097,0.615,0.605,265.381,-57.312,44.617
-0.106,0.454,0.597,253.235,-62.073,50.049
-0.093,0.340,0.704,231.934,-62.073,57.617
-0.093,0.253,0.880,202.698,-55.786,61.462
-0.136,0.187,1.098,178.650,-47.424,62.927
-0.123,0.227,1.346,163.330,-33.447,68.970
-0.083,0.247,1.391,164.917,-15.442,78.186
-0.025,0.214,1.262,170.776,-0.854,90.454
0.044,0.301,1.000,172.913,10.864,103.027
0.095,0.508,0.886,160.950,18.921,111.816
0.104,0.952,0.589,152.588,24.841,111.633
-0.093,1.417,0.765,121.338,26.611,92.896
-0.254,1.682,0.640,112.183,24.658,62.744
-0.400,2.126,0.368,94.299,13.306,39.856
-0.606,2.427,0.260,72.327,-1.038,7.812
-0.652,2.171,0.467,20.935,3.479,-27.039
-0.526,1.721,0.277,-7.996,8.789,-35.950
-0.444,1.723,-0.166,34.729,-13.245,-29.114
-0.371,1.588,-0.137,56.519,-31.982,-37.292
-0.396,1.406,0.006,65.857,-31.555,-51.636
-0.472,1.284,0.178,84.961,-24.597,-58.167
-0.554,1.099,0.393,92.285,-14.343,-62.622
-0.529,0.841,0.441,83.374,-3.174,-66.345
-0.458,0.502,0.620,56.091,1.465,-63.660
-0.461,0.479,0.661,18.921,1.099,-57.129
-0.305,0.884,0.509,-0.854,-0.916,-61.951
-0.150,1.146,0.280,-15.320,-8.850,-84.106
-0.173,1.073,0.443,-37.598,-25.879,-108.276
-0.211,0.401,0.751,-78.308,-32.837,-119.263
-0.127,-0.868,1.113,-153.259,-33.569,-99.182
-0.205,-1.634,1.058,-213.623,-25.024,-44.434
-0.251,-1.206,1.480,-224.915,-6.531,-16.785
-0.213,-0.565,1.651,-179.749,31.738,-37.170
-0.320,-0.445,1.888,-134.460,45.959,-45.776
-0.264,-0.401,1.195,-52.246,23.010,-17.456
-0.183,-0.326,0.813,-10.986,12.512,13.306
-0.119,-0.025,0.667,-1.221,25.818,43.945
-0.082,0.316,0.709,3.052,38.635,63.843
-0.136,0.649,0.684,15.076,37.476,73.730
-0.169,0.647,0.799,20.691,32.532,78.796
-0.108,0.520,0.878,21.851,33.020,86.853
0.005,0.961,0.511,42.114,36.377,98.755
-0.151,1.731,0.525,56.885,35.950,95.703
-0.593,2.402,0.789,74.768,49.744,61.462
-0.482,2.019,0.972,37.537,48.645,10.254
-0.314,1.939,0.577,50.049,25.330,-1.099
-0.264,1.459,0.639,16.724,24.170,2.197
-0.293,1.023,0.260,-13.184,18.372,5.676
-0.284,0.943,0.247,-41.504,16.235,0.916
-0.343,1.046,0.307,-35.034,25.879,-15.076
-0.326,1.257,0.259,-28.870,24.841,-31.311
-0.319,1.141,0.237,-24.475,23.071,-40.344
-0.246,0.838,0.196,-23.254,18.005,-40.344
-0.151,0.735,0.142,-13.611,8.911,-33.508
-0.087,0.881,0.113,-3.845,-2.930,-31.189
-0.089,1.085,0.198,8.301,-16.357,-37.354
-0.147,1.063,0.362,15.076,-28.381,-48.401
-0.211,0.802,0.570,12.085,-37.781,-56.274
-0.207,0.598,0.576,17.517,-42.053,-55.725
-0.296,0.604,0.433,35.034,-49.194,-52.307
-0.328,0.683,0.499,38.330,-52.917,-57.129
-0.284,0.626,0.720,38.147,-49.500,-63.904
-0.138,0.078,0.779,21.179,-51.208,-58.594
-0.142,-0.516,0.923,-6.897,-44.067,-31.677
-0.075,-1.190,1.280,-55.298,-22.644,-3.235
-0.028,-1.142,1.614,-97.229,7.690,23.682
-0.051,-0.758,1.732,-88.684,33.325,34.241
-0.105,-0.343,1.426,-60.242,36.682,40.527
-0.176,0.073,1.061,-49.805,31.372,49.316
-0.158,0.511,0.709,-36.621,24.414,56.824
-0.069,0.661,0.721,-28.503,22.095,63.782
-0.026,0.582,0.901,-9.766,29.053,74.280
0.011,0.330,0.795,18.066,38.025,91.492
0.018,0.346,0.627,42.175,41.443,114.929
0.073,0.705,0.225,50.903,49.255,128.479
-0.073,0.951,0.125,41.260,33.203,126.831
-0.220,1.959,0.021,33.875,23.437,111.694
-0.858,2.329,0.624,12.817,7.751,63.293
-0.845,1.988,0.896,-51.270,4.333,14.404
-0.567,1.879,0.026,-5.371,-26.062,7.446
-0.611,1.440,-0.086,10.925,-31.738,15.869
-0.527,1.455,-0.019,-20.569,-27.222,7.507
-0.745,1.653,0.172,-26.550,-37.964,-17.578
-0.912,1.637,0.350,-27.466,-37.170,-49.316
-0.763,1.518,0.235,-10.437,-31.372,-60.669
-0.518,1.343,0.069,10.010,-21.362,-49.133
-0.304,1.011,0.079,-2.197,-9.949,-37.964
-0.194,0.912,0.123,-20.874,-6.592,-38.391
-0.155,0.971,0.141,-36.560,-16.602,-51.147
-0.041,1.200,0.244,-55.603,-30.029,-67.566
-0.096,1.253,0.381,-63.232,-40.710,-83.496

-0.097,0.572,-0.633,125.671,2.686,-33.203
-0.099,0.305,-0.707,178.711,1.282,-16.357
-0.108,0.181,-0.550,209.900,-1.099,3.906
-0.118,0.163,-0.686,254.028,-8.240,25.513
-0.276,0.379,-0.751,318.176,-26.428,45.288
-0.334,0.652,-0.778,360.657,-35.706,59.814
-0.387,0.837,-0.668,363.831,-35.095,70.251
-0.226,0.868,-0.746,388.611,-35.339,78.430
-0.165,0.777,-0.806,375.549,-34.058,75.500
-0.159,1.065,-0.317,336.975,-24.048,67.322
-0.083,0.951,0.003,296.326,-10.071,54.443
-0.174,0.921,0.127,276.245,-27.344,47.485
-0.146,1.004,0.325,250.488,-33.569,39.795
-0.048,1.218,0.352,226.440,-37.354,28.564
0.005,1.308,0.234,217.529,-44.556,19.287
0.043,1.161,0.101,191.589,-50.293,8.484
-0.020,0.797,0.120,132.263,-60.242,0.793
0.031,0.881,0.017,93.323,-60.852,1.404
-0.114,1.261,0.003,98.328,-62.256,2.380
-0.329,0.985,0.432,86.548,-57.251,-1.221
-0.251,0.609,0.403,124.634,-57.251,15.015
-0.224,0.653,0.157,179.260,-62.500,32.654
-0.135,0.706,0.095,192.688,-60.303,34.180
-0.171,0.697,0.190,192.932,-57.678,31.311
-0.194,0.709,0.396,209.778,-51.147,30.029
-0.167,0.703,0.495,236.328,-49.316,33.508
-0.143,0.665,0.589,256.409,-52.063,39.063
-0.097,0.615,0.605,265.381,-57.312,44.617
-0.106,0.454,0.597,253.235,-62.073,50.049
-0.093,0.340,0.704,231.934,-62.073,57.617
-0.093,0.253,0.880,202.698,-55.786,61.462
-0.136,0.187,1.098,178.650,-47.424,62.927
-0.123,0.227,1.346,163.330,-33.447,68.970
-0.083,0.247,1.391,164.917,-15.442,78.186
-0.025,0.214,1.262,170.776,-0.854,90.454
0.044,0.301,1.000,172.913,10.864,103.027
0.095,0.508,0.886,160.950,18.921,111.816
0.104,0.952,0.589,152.588,24.841,111.633
-0.093,1.417,0.765,121.338,26.611,92.896
-0.169,1.715,0.601,137.756,5.737,129.944
-0.587,1.479,1.136,96.313,22.949,101.501
-0.572,2.079,0.846,64.575,20.752,90.332
-0.626,1.825,0.545,64.697,4.517,71.594
-0.564,1.651,0.468,2.747,6.409,46.082
-0.308,1.663,0.381,-18.616,-2.991,32.532
-0.192,1.434,0.392,-35.767,-13.306,4.761
-0.237,1.312,0.335,-58.533,-17.822,-20.569
-0.386,1.408,0.307,-40.588,-21.912,-39.856
-0.492,1.240,0.353,-41.931,-24.780,-51.147
-0.508,0.904,0.516,-37.781,-17.700,-46.692
-0.509,0.784,0.460,-14.343,-9.521,-38.696
-0.486,0.771,0.511,-7.568,-4.761,-39.551
-0.488,0.906,0.481,-1.221,-5.981,-44.678
-0.502,0.982,0.516,-6.104,-8.240,-54.504
-0.439,0.966,0.475,-22.461,-10.315,-66.345
-0.347,1.016,0.382,-34.058,-15.625,-76.477
-0.255,0.921,0.299,-34.546,-24.353,-86.548
-0.229,0.935,0.400,-34.302,-28.931,-91.614
-0.214,1.375,0.335,-23.010,-26.489,-97.717
-0.176,0.800,0.535,-21.362,-35.156,-109.253
-0.049,0.023,0.420,-33.386,-47.302,-92.468
-0.015,-0.914,0.664,-70.313,-41.748,-58.167
0.013,-1.328,1.115,-136.658,-11.658,-20.508
0.067,-1.138,1.391,-135.986,14.587,13.916
-0.030,-0.862,1.463,-105.957,24.963,30.579
-0.203,-0.486,1.399,-65.430,24.597,36.255
-0.229,-0.028,1.127,-7.202,23.743,47.302
-0.206,0.206,0.895,30.151,28.381,57.190
-0.279,0.323,0.656,61.584,35.522,69.946
-0.155,0.514,0.552,102.478,34.668,93.262
-0.054,0.708,0.572,115.906,26.794,113.770
-0.023,1.012,0.672,112.976,24.780,120.911
-0.103,1.509,0.231,122.681,10.010,118.774
-0.577,1.829,0.860,83.679,10.620,98.145
-0.585,1.886,0.817,20.508,31.128,74.524
-0.594,2.016,0.281,42.297,-9.033,64.026
-0.589,1.644,0.471,3.845,-4.639,38.452
-0.274,1.568,0.376,-20.081,-8.362,23.193
-0.174,1.354,0.258,-23.804,-31.799,3.235
-0.296,1.426,0.293,-42.419,-30.396,-19.470
-0.499,1.481,0.371,-30.823,-26.001,-43.091
-0.564,1.288,0.496,-25.574,-31.555,-56.946
-0.603,1.039,0.497,-9.888,-31.860,-52.795
-0.604,0.781,0.568,5.798,-19.653,-44.739
-0.542,0.731,0.635,0.488,-7.751,-41.992
-0.534,0.897,0.587,-2.075,-7.751,-44.067
-0.507,0.947,0.580,-21.362,-8.484,-54.199
-0.393,0.926,0.564,-48.706,-7.324,-66.772
-0.280,1.121,0.430,-56.519,-9.583,-77.087
-0.153,1.034,0.283,-51.331,-15.991,-89.478
-0.078,0.872,0.231,-44.434,-23.010,-93.750
-0.101,1.005,0.396,-38.757,-23.193,-92.163
0.002,1.383,0.346,-29.358,-25.818,-99.548
0.066,0.227,0.198,-33.203,-37.415,-105.530
0.025,-1.036,0.340,-102.417,-41.321,-75.134
-0.082,-1.271,1.076,-169.312,-22.034,-27.527
-0.073,-0.804,1.430,-163.940,11.963,2.014
-0.157,-0.748,1.509,-141.663,23.682,10.376
-0.337,-0.544,1.481,-120.361,24.048,15.381
-0.376,-0.216,1.223,-72.083,26.489,29.663
-0.275,0.095,0.912,-13.733,30.640,46.509
-0.226,0.353,0.473,53.345,31.006,59.143
-0.318,0.368,0.274,102.295,23.315,74.036
-0.227,0.565,0.555,114.258,26.245,99.976
-0.099,0.950,0.674,141.052,44.128,117.249
0.053,1.245,0.019,181.946,39.795,120.117
-0.017,2.298,0.412,190.369,21.545,115.356
-0.645,2.148,0.771,164.124,32.471,78.064
-0.451,1.426,0.886,42.603,18.372,64.880
-0.415,2.213,0.032,79.773,-10.071,82.153
-0.650,1.697,0.591,15.564,12.756,50.354
-0.337,1.878,0.608,-47.607,8.606,21.667
-0.265,1.738,0.334,-27.527,-28.687,-13.977
-0.425,1.451,0.265,-49.805,-35.706,-48.584
-0.508,1.294,0.370,-54.260,-27.466,-67.566
-0.570,1.139,0.362,-34.363,-29.297,-71.899
-0.600,0.937,0.438,-11.108,-26.855,-65.918
-0.589,0.723,0.461,12.695,-18.127,-58.838
-0.529,0.513,0.579,13.794,-7.874,-54.382

-0.048,1.218,0.352,226.440,-37.354,28.564
0.005,1.308,0.234,217.529,-44.556,19.287
0.043,1.161,0.101,191.589,-50.293,8.484
-0.020,0.797,0.120,132.263,-60.242,0.793
0.031,0.881,0.017,93.323,-60.852,1.404
-0.114,1.261,0.003,98.328,-62.256,2.380
-0.329,0.985,0.432,86.548,-57.251,-1.221
-0.251,0.609,0.403,124.634,-57.251,15.015
-0.224,0.653,0.157,179.260,-62.500,32.654
-0.135,0.706,0.095,192.688,-60.303,34.180
-0.171,0.697,0.190,192.932,-57.678,31.311
-0.194,0.709,0.396,209.778,-51.147,30.029
-0.167,0.703,0.495,236.328,-49.316,33.508
-0.143,0.665,0.589,256.409,-52.063,39.063
-0.097,0.615,0.605,265.381,-57.312,44.617
-0.106,0.454,0.597,253.235,-62.073,50.049
-0.093,0.340,0.704,231.934,-62.073,57.617
-0.093,0.253,0.880,202.698,-55.786,61.462
-0.136,0.187,1.098,178.650,-47.424,62.927
-0.123,0.227,1.346,163.330,-33.447,68.970
-0.083,0.247,1.391,164.917,-15.442,78.186
-0.025,0.214,1.262,170.776,-0.854,90.454
0.044,0.301,1.000,172.913,10.864,103.027
0.095,0.508,0.886,160.950,18.921,111.816
0.104,0.952,0.589,152.588,24.841,111.633
-0.093,1.417,0.765,121.338,26.611,92.896
-0.169,1.715,0.601,137.756,5.737,129.944
-0.093,-0.072,0.523,-27.344,-23.132,-64.941
-0.075,-0.838,0.552,-32.227,-30.640,-35.889
-0.086,-1.284,0.636,-46.326,-25.757,7.141
-0.055,-1.239,0.938,-46.448,-10.376,44.556
-0.049,-0.648,1.110,-10.071,3.845,61.829
-0.257,-0.057,0.979,44.983,5.432,62.744
-0.410,0.438,0.814,64.758,2.686,63.293
-0.345,0.608,0.792,74.890,-0.244,73.181
-0.149,0.883,0.706,110.107,-4.395,85.022
-0.106,1.073,0.771,138.245,-1.343,93.262
-0.180,0.656,0.659,114.502,-2.258,95.825
-0.189,0.698,0.736,71.350,-10.620,108.276
-0.345,1.287,0.884,43.030,-0.427,110.168
-0.451,1.256,0.895,-6.470,3.296,85.205
-0.438,1.123,0.799,-53.955,-12.329,65.979
-0.397,0.957,0.818,-101.929,-10.254,53.528
-0.294,1.128,0.772,-143.005,-3.906,42.664
-0.455,1.083,1.046,-166.626,5.981,20.142
-0.500,0.854,0.790,-192.261,16.907,3.662
-0.460,0.948,0.591,-180.481,15.625,1.404
-0.384,1.110,0.500,-178.467,24.414,-8.118
-0.326,1.126,0.489,-172.119,31.921,-16.113
-0.311,1.098,0.584,-177.734,33.081,-22.888
-0.283,1.185,0.588,-187.988,31.616,-31.555
-0.258,1.302,0.569,-208.008,30.823,-41.992
-0.258,1.382,0.471,-219.971,27.100,-53.101
-0.201,1.340,0.352,-232.239,20.813,-64.392
-0.129,1.203,0.345,-247.314,14.160,-73.547
-0.033,1.049,0.241,-259.216,9.827,-78.613
0.060,0.930,0.156,-271.545,4.700,-80.994
0.115,0.949,-0.051,-272.034,-1.282,-84.778
0.125,0.806,-0.086,-296.753,-7.446,-87.341
0.169,0.692,0.011,-336.548,-9.277,-86.792
0.099,0.723,-0.099,-352.234,-10.376,-90.027
-0.082,0.516,0.004,-374.817,-16.663,-86.792
-0.255,0.497,0.240,-381.775,-18.433,-78.308
-0.271,0.581,0.137,-359.497,-18.066,-64.514
-0.403,0.893,0.051,-309.631,-19.043,-55.542
-0.515,1.116,-0.048,-271.179,-14.526,-54.626
-0.543,1.181,-0.133,-233.215,-9.644,-52.979
-0.552,1.090,-0.093,-215.149,-9.827,-46.387
-0.481,0.828,0.104,-216.248,-11.597,-34.851
-0.326,0.492,0.471,-221.985,-22.095,-19.836
-0.308,0.891,0.192,-201.599,-29.602,-14.954
-0.319,0.814,0.021,-194.092,-26.733,-20.264
-0.358,0.644,-0.112,-208.740,-30.212,-19.775
-0.287,0.973,-0.313,-168.884,-36.438,-17.639
-0.094,1.157,-0.677,-103.638,-38.269,-19.958
-0.016,0.982,-0.759,-74.463,-38.696,-22.156
0.050,0.812,-0.692,-55.298,-42.542,-13.611
0.139,0.640,-0.336,-44.922,-47.546,0.061
0.246,0.642,-0.046,-38.635,-46.570,11.475
0.321,0.812,0.128,-36.926,-34.973,14.587
0.336,0.940,0.295,-33.630,-20.630,10.376
0.281,1.032,0.356,-29.907,-8.057,7.202
0.254,0.869,0.169,-38.574,4.395,4.456
0.081,0.645,0.222,-53.528,10.559,4.150
0.052,0.840,0.240,-64.880,23.926,7.141
0.005,1.006,0.150,-59.692,41.870,6.714
0.142,0.680,0.091,-64.270,58.655,3.296
0.294,0.452,-0.266,-94.116,68.970,0.122
0.528,0.271,-1.000,-107.971,72.754,-6.348
-0.077,1.279,-1.601,-43.030,57.251,-14.526
-0.344,1.155,-0.972,-92.163,55.420,-29.053
-0.197,0.740,-1.306,-113.159,53.345,-28.809
0.023,0.818,-1.906,-118.835,45.715,-32.898
-0.287,0.592,-1.474,-110.413,28.870,-37.476
-0.413,0.519,-1.651,-99.976,16.174,-27.100
-0.443,0.957,-1.782,-45.166,-5.615,-25.146
-0.427,0.977,-1.812,-4.089,-26.855,-28.748
-0.558,0.899,-1.361,0.610,-39.856,-25.635
-0.460,0.841,-0.899,-16.541,-43.152,-21.240
-0.244,1.112,-0.511,-3.357,-42.480,-14.038
-0.041,1.326,-1.113,23.499,-39.063,-15.503
-0.232,0.535,-1.138,-7.812,-54.688,-28.320
-0.212,0.783,-0.920,-6.653,-70.801,-15.320
-0.206,0.613,-0.578,3.601,-77.698,-12.817
-0.075,0.353,-0.146,19.592,-76.782,-7.812
0.089,0.556,-0.131,42.175,-65.857,5.066
-0.018,0.867,0.100,37.903,-56.396,6.470
-0.134,0.839,0.055,14.404,-49.133,3.357
-0.128,0.729,0.422,22.888,-40.344,8.606
0.035,0.506,0.517,-2.686,-24.719,12.268
0.100,0.631,0.170,-19.714,-12.939,9.705
0.114,0.862,0.194,-17.761,-3.967,7.874
0.109,0.912,0.125,-14.160,8.240,3.662
0.109,0.807,-0.043,-19.409,18.921,-2.197
0.122,0.653,-0.189,-31.677,29.114,-3.845
0.159,0.622,-0.305,-38.269,38.452,1.526
0.224,0.698,-0.448,-37.292,45.715,6.165
0.228,0.673,-0.594,-41.687,49.805,4.578
0.199,0.531,-0.834,-52.979,51.514,2.380

-0.257,-0.057,0.979,44.983,5.432,62.744
-0.410,0.438,0.814,64.758,2.686,63.293
-0.345,0.608,0.792,74.890,-0.244,73.181
-0.149,0.883,0.706,110.107,-4.395,85.022
-0.106,1.073,0.771,138.245,-1.343,93.262
-0.180,0.656,0.659,114.502,-2.258,95.825
-0.189,0.698,0.736,71.350,-10.620,108.276
-0.345,1.287,0.884,43.030,-0.427,110.168
-0.129,0.597,-1.003,57.861,-17.395,3.723
-0.138,0.643,-1.015,70.129,-23.682,8.362
-0.148,0.630,-0.928,77.698,-29.724,10.193
-0.178,0.686,-0.993,92.468,-35.583,10.742
-0.110,0.554,-0.764,117.432,-44.495,11.780
0.039,0.650,-0.802,150.269,-44.617,17.761
-0.007,0.532,-0.543,177.734,-47.913,19.592
0.068,0.366,-0.457,185.364,-43.213,24.048
0.007,0.450,-0.669,212.769,-41.016,34.607
-0.060,0.459,-0.558,217.346,-45.410,40.466
-0.032,0.571,-0.707,226.746,-52.795,48.828
0.038,0.775,-0.758,237.122,-63.660,51.880
0.093,0.796,-0.606,220.764,-62.195,53.467
-0.095,0.808,-0.198,207.581,-55.298,58.960
-0.152,1.016,0.140,210.083,-45.227,62.256
-0.126,1.140,0.271,218.750,-36.377,58.167
-0.110,1.170,0.488,214.905,-29.968,48.340
-0.206,1.074,0.726,194.641,-16.052,36.377
-0.188,0.895,1.028,144.897,2.014,23.560
-0.069,0.890,0.910,112.183,20.020,15.686
0.003,0.848,0.676,78.369,28.137,9.827
0.054,0.802,0.412,37.659,35.461,5.188
0.124,0.806,0.259,8.301,39.795,4.883
0.242,0.870,0.111,-2.686,39.978,7.446
0.353,0.974,0.008,2.625,38.879,10.986
0.415,1.014,0.063,11.230,39.490,14.648
0.454,0.989,0.132,22.827,44.800,19.592
0.351,1.135,0.037,47.546,50.781,24.841
0.209,0.890,0.249,44.250,60.730,24.780
0.156,0.708,0.033,30.090,75.439,29.480
-0.154,0.854,-0.057,22.278,81.177,35.889
-0.440,1.441,0.384,-0.549,87.097,32.349
-0.420,1.558,-0.051,-4.272,91.125,20.874
-0.377,1.448,-0.556,-12.878,79.773,11.047
-0.593,1.458,-0.955,-10.254,65.552,3.967
-0.712,1.417,-0.900,-27.100,52.856,-3.357
-0.636,1.460,-1.366,-5.066,24.658,-5.493
-0.589,1.532,-1.478,7.629,-5.737,-10.742
-0.578,1.284,-0.984,-2.136,-18.494,-16.235
-0.374,1.027,-0.644,1.892,-18.250,-14.771
-0.192,0.936,-0.503,10.010,-11.108,-12.024
-0.154,1.023,-0.425,5.493,-3.113,-13.428
-0.266,1.154,-0.464,-11.475,-8.728,-17.761
-0.341,1.056,-0.446,-34.424,-28.076,-23.987
-0.485,0.974,-0.557,-41.687,-46.143,-21.667
-0.567,0.895,-0.740,-35.645,-65.613,-18.677
-0.382,0.689,-0.549,-44.128,-81.970,-19.287
-0.270,0.803,-0.754,-18.005,-91.919,-13.977
-0.234,0.929,-0.833,7.812,-108.704,-14.954
-0.162,0.777,-0.448,14.343,-122.864,-16.907
0.024,0.691,-0.251,42.725,-126.221,-11.414
0.133,0.555,-0.036,60.913,-121.460,-4.944
0.189,0.278,1.021,34.424,-103.760,2.014
0.312,0.271,1.209,23.682,-73.547,14.221
0.304,0.212,1.264,16.602,-57.312,20.508
0.267,0.421,1.471,-9.338,-35.156,25.635
0.182,0.867,1.359,-5.188,-5.615,25.330
0.038,1.125,0.965,10.742,18.250,16.968
-0.114,1.051,0.721,8.301,32.654,7.385
-0.148,1.083,0.590,14.465,45.288,4.639
-0.039,1.079,0.291,36.804,57.373,4.150
0.065,0.922,0.145,40.894,63.293,7.446
0.169,0.940,0.039,29.602,73.181,13.611
0.235,0.705,0.128,3.479,86.792,16.602
0.244,1.219,-0.347,7.874,95.154,21.423
0.082,1.102,-0.234,-17.029,92.346,16.968
0.044,1.224,-0.192,-28.564,93.262,18.127
0.029,1.204,-0.538,-26.367,89.844,15.625
-0.140,1.161,-0.651,-39.612,77.881,14.526
-0.389,1.322,-0.829,-44.373,66.101,14.099
-0.599,1.303,-1.118,-50.171,55.359,8.728
-1.047,1.270,-1.349,-69.153,34.180,3.906
-1.210,1.673,-1.108,-49.500,12.268,-2.930
-0.859,1.517,-0.791,13.123,-21.179,-10.315
-0.428,0.932,-0.502,50.964,-42.419,-10.620
-0.124,0.778,-0.332,52.612,-29.907,-4.517
-0.129,1.036,-0.428,32.471,-17.883,-2.502
-0.190,1.173,-0.446,7.446,-29.541,-11.414
-0.308,1.058,-0.603,-6.836,-49.805,-16.479
-0.229,0.910,-0.584,-19.836,-67.932,-15.747
-0.188,0.786,-0.625,-13.733,-83.618,-12.207
-0.126,0.784,-0.698,-3.662,-95.703,-8.362
-0.151,0.803,-0.705,-2.808,-102.844,-5.188
-0.165,0.903,-0.405,-1.587,-112.366,-2.686
-0.117,0.853,-0.112,15.991,-118.713,-0.793
0.027,0.839,-0.150,35.828,-114.563,1.038
0.020,0.534,0.777,17.700,-101.746,2.930
0.227,0.448,1.127,4.822,-76.660,12.695
0.227,0.387,1.170,22.339,-52.856,19.836
0.214,0.382,1.426,9.094,-31.250,23.193
0.215,0.607,1.202,11.719,-8.789,26.611
0.157,0.899,0.731,19.653,10.986,23.193
-0.050,0.923,0.572,13.184,23.560,16.235
-0.087,1.071,0.374,18.250,33.691,15.198
-0.104,1.190,0.161,55.115,37.720,16.479
-0.072,1.012,0.225,61.768,43.213,16.235
0.017,1.006,0.072,77.454,50.232,19.592
0.054,0.454,0.499,61.218,64.026,21.790
0.252,0.544,0.442,61.951,84.717,34.790
0.285,0.936,-0.215,72.388,91.003,40.710
0.021,0.882,0.002,18.799,89.050,36.743
-0.099,1.044,0.142,-8.484,91.309,36.682
-0.135,1.098,-0.140,-7.568,90.637,32.898
-0.166,1.301,-0.487,-24.597,86.670,29.419
-0.354,1.409,-0.542,-50.415,82.092,23.254
-0.567,1.197,-0.644,-88.623,77.454,15.930
-0.802,1.560,-0.876,-98.389,65.552,12.939
-0.921,1.708,-1.160,-85.449,43.457,1.099
-0.840,1.413,-1.237,-76.172,10.498,-12.756
-0.682,1.155,-0.917,-47.424,-13.306,-15.259
-0.454,0.979,-0.651,-13.855,-21.912,-13.123

0.242,0.870,0.111,-2.686,39.978,7.446
0.353,0.974,0.008,2.625,38.879,10.986
0.415,1.014,0.063,11.230,39.490,14.648
0.454,0.989,0.132,22.827,44.800,19.592
0.351,1.135,0.037,47.546,50.781,24.841
0.209,0.890,0.249,44.250,60.730,24.780
0.156,0.708,0.033,30.090,75.439,29.480
-0.154,0.854,-0.057,22.278,81.177,35.889
-0.440,1.441,0.384,-0.549,87.097,32.349
-0.157,1.124,-0.461,39.490,-40.161,-32.471
-0.125,1.170,-0.610,44.678,-51.758,-34.851
-0.208,1.044,-0.721,49.194,-64.514,-32.898
-0.208,0.933,-0.656,47.424,-75.989,-28.503
-0.135,0.918,-0.677,53.528,-86.304,-22.522
-0.091,0.899,-0.539,54.626,-97.107,-21.118
-0.035,0.922,-0.377,59.998,-103.760,-21.301
0.021,0.880,-0.051,60.303,-105.408,-22.888
0.116,0.940,-0.011,62.500,-99.976,-25.635
0.067,0.833,0.484,54.443,-90.515,-30.457
0.147,0.657,1.170,16.785,-61.462,-29.785
0.167,0.719,1.174,16.052,-29.541,-24.841
0.088,0.649,1.320,16.785,-12.085,-25.696
0.068,0.658,1.160,18.555,5.676,-25.391
0.019,0.780,0.734,27.771,18.127,-25.269
-0.074,0.824,0.528,25.757,27.039,-29.297
-0.056,0.759,0.551,19.836,33.447,-31.128
0.050,0.918,0.311,45.715,36.194,-25.513
0.133,0.935,0.236,56.519,41.748,-21.423
0.204,0.869,0.339,53.162,50.049,-18.250
0.266,0.740,0.419,49.805,61.340,-13.672
0.325,0.615,0.440,44.617,72.754,-8.362
0.364,0.682,0.255,40.710,80.444,-2.930
0.197,1.020,0.047,42.725,77.087,-2.563
-0.014,1.183,0.299,12.207,77.576,-10.193
-0.114,1.248,0.454,-0.122,81.299,-17.334
-0.057,1.210,0.046,2.441,81.360,-21.484
-0.032,1.231,-0.295,-7.080,76.843,-22.095
-0.127,1.294,-0.555,-16.724,72.693,-24.475
-0.247,1.154,-0.736,-36.743,64.392,-31.494
-0.317,1.263,-0.792,-37.231,49.377,-31.860
-0.300,1.209,-0.992,-8.789,25.818,-27.771
-0.227,1.057,-1.032,21.057,-3.540,-22.766
-0.140,0.917,-0.683,38.940,-21.545,-16.846
0.025,0.950,-0.440,52.490,-25.330,-11.353
0.074,1.055,-0.346,61.157,-27.222,-9.705
-0.016,1.143,-0.438,60.913,-32.410,-12.146
-0.081,1.050,-0.327,57.129,-44.739,-16.174
-0.134,0.932,-0.266,53.650,-54.138,-13.672
-0.020,0.858,-0.279,53.772,-60.303,-9.399
0.025,0.769,0.083,32.227,-60.730,-7.690
0.041,0.826,0.100,11.536,-53.772,-5.920
-0.008,0.839,-0.021,9.460,-58.411,-8.911
-0.026,0.913,0.007,-1.587,-68.298,-14.038
-0.018,0.913,0.020,-2.197,-74.707,-17.456
0.065,0.895,0.310,4.883,-74.524,-15.137
0.172,0.971,0.330,28.259,-65.247,-7.446
0.130,0.762,0.561,44.922,-58.655,-4.150
0.150,0.616,0.941,47.974,-47.241,0.977
0.256,0.515,1.228,39.307,-29.785,5.981
0.308,0.522,1.226,25.024,-12.390,7.446
0.296,0.562,1.118,19.470,1.831,6.897
0.295,0.690,0.836,15.747,15.869,7.263
0.236,0.766,0.600,10.925,23.132,4.700
0.223,0.865,0.552,0.305,28.137,2.808
0.179,1.034,0.629,4.333,36.072,1.831
0.217,0.969,0.695,3.479,48.767,1.038
0.270,0.914,0.663,9.460,59.509,5.310
0.321,0.898,0.490,16.541,68.237,9.521
0.262,1.090,0.083,24.719,69.885,10.376
0.033,1.062,0.116,8.240,67.810,3.601
-0.118,1.110,0.336,-8.301,67.017,-2.625
-0.154,1.133,0.129,1.221,66.406,-5.310
-0.094,1.129,-0.080,2.869,62.378,-4.883
-0.013,1.332,-0.454,-1.709,57.922,-3.357
-0.141,1.430,-0.553,-10.437,49.866,-8.728
-0.212,1.187,-0.332,-34.424,42.419,-15.747
-0.144,1.066,-0.435,-26.245,29.114,-13.123
-0.094,1.060,-0.589,-2.502,14.038,-8.911
-0.085,0.994,-0.489,2.319,2.563,-11.292
-0.005,0.978,-0.307,8.606,-4.944,-13.977
0.119,1.034,-0.259,21.057,-10.986,-14.221
0.140,1.088,-0.266,30.640,-16.418,-14.771
0.035,1.093,-0.309,38.879,-19.836,-16.785
-0.002,1.061,-0.314,54.871,-27.161,-16.479
-0.000,0.987,-0.327,60.791,-32.715,-11.902
0.038,0.888,-0.261,54.016,-37.354,-9.155
0.062,0.844,-0.075,28.992,-41.687,-9.338
0.105,0.885,0.003,9.155,-44.617,-7.385
0.129,0.992,-0.062,2.258,-47.668,-8.240
0.097,0.935,-0.006,-6.897,-54.993,-13.611
0.110,0.791,0.094,-18.921,-63.416,-16.663
0.177,0.819,0.371,-15.625,-65.369,-14.648
0.234,0.914,0.605,-3.723,-57.251,-10.803
0.123,0.825,0.884,8.789,-47.058,-9.644
0.147,0.521,1.155,11.597,-35.645,-6.897
0.265,0.405,1.210,19.653,-21.912,2.869
0.285,0.423,1.172,19.531,-9.155,6.775
0.288,0.533,1.084,12.695,6.104,7.080
0.297,0.657,0.934,4.883,18.921,6.104
0.314,0.823,0.654,-3.845,24.475,4.822
0.310,0.906,0.504,-16.968,25.879,1.892
0.296,0.987,0.557,-29.114,29.419,-1.038
0.326,1.002,0.589,-30.823,37.354,-2.075
0.355,0.901,0.589,-33.142,44.495,-0.183
0.360,0.825,0.585,-39.368,50.903,3.784
0.349,0.911,0.228,-42.480,55.542,6.714
0.171,0.941,0.274,-49.500,52.002,4.517
0.049,0.955,0.461,-71.716,56.946,-0.977
-0.002,0.867,0.264,-56.091,58.899,-2.014
-0.014,0.864,0.085,-52.124,60.913,0.244
0.014,1.003,-0.365,-37.415,57.129,3.906
-0.075,1.152,-0.562,-28.564,50.476,0.732
-0.211,1.044,-0.631,-31.921,43.457,-3.479
-0.379,1.070,-0.526,-24.475,28.931,-1.465
-0.414,1.255,-0.750,3.967,11.414,1.709
-0.368,1.299,-0.838,42.908,-12.573,-1.587
-0.263,1.147,-0.531,49.988,-27.954,-4.211
-0.046,1.036,-0.209,42.908,-31.250,-1.648
0.123,0.965,-0.173,35.034,-29.114,1.892

0.115,0.949,-0.135,-33.691,66.406,5.371
0.117,1.136,-0.554,-32.104,59.448,2.014
-0.001,1.339,-0.692,-26.550,45.898,-2.380
-0.201,1.219,-0.490,-29.297,34.424,-6.409
-0.270,1.117,-0.632,-6.165,16.357,-2.014
-0.244,1.053,-0.582,16.113,-2.380,4.822
-0.090,0.932,-0.275,20.508,-14.404,6.592
0.132,0.932,-0.208,21.057,-21.057,6.226
0.205,1.009,-0.120,13.245,-24.658,2.502
0.173,1.025,-0.058,-5.798,-26.184,-1.770
0.130,0.939,-0.059,-16.785,-30.762,-3.723
0.094,0.849,-0.109,-18.616,-38.757,-1.770
0.085,0.809,-0.136,-20.691,-45.593,2.625
0.097,0.832,-0.205,-16.724,-54.077,6.836
0.117,0.919,-0.278,-11.963,-65.552,9.583
0.137,0.973,-0.369,-7.507,-76.477,10.681
0.139,0.967,-0.375,-2.991,-87.585,10.620
0.133,0.847,-0.180,1.282,-98.511,10.742
0.266,0.717,0.118,-2.441,-100.464,13.855
0.164,0.854,0.529,-6.226,-86.853,16.357
0.071,0.664,1.191,-37.415,-68.604,12.817
0.056,0.558,1.349,-41.809,-52.490,18.982
0.071,0.715,1.229,-30.579,-35.767,23.132
0.037,0.841,1.304,-40.710,-15.259,19.043
0.023,1.036,1.012,-36.926,2.563,13.611
0.015,1.219,0.572,-23.193,14.282,8.179
0.008,1.240,0.433,-20.569,21.118,3.967
0.027,1.129,0.418,-15.808,26.794,4.395
0.102,1.025,0.358,-5.676,34.302,9.460
0.224,0.922,0.352,-5.493,43.152,14.832
0.305,0.866,0.420,-17.761,52.612,17.456
0.332,0.814,0.495,-33.386,62.317,15.991
0.284,0.744,0.430,-43.213,70.862,12.695
0.225,0.830,0.209,-40.833,77.271,9.827
0.114,0.986,0.004,-40.100,80.750,4.395
-0.003,0.811,0.359,-51.575,83.679,-0.122
0.006,0.846,-0.058,-34.119,87.708,3.540
0.021,0.948,-0.344,-32.043,87.341,6.409
-0.045,1.336,-0.766,-32.410,77.271,8.423
-0.365,1.451,-0.557,-28.076,66.711,1.709
-0.524,1.045,-0.719,-34.363,58.228,-0.549
-0.501,1.170,-0.946,-23.132,35.156,8.240
-0.352,1.113,-1.064,-9.766,10.071,10.254
-0.139,0.859,-0.745,-2.869,-11.841,8.545
0.090,0.881,-0.449,7.751,-23.743,12.817
0.224,0.983,-0.289,17.822,-28.015,14.099
0.209,1.164,-0.258,22.217,-30.273,11.719
0.093,1.279,-0.402,21.545,-37.354,4.761
0.003,1.157,-0.343,13.245,-49.683,-0.916
-0.035,0.956,-0.222,12.390,-59.692,3.296
0.062,0.821,-0.122,15.259,-66.650,11.169
0.165,0.807,0.054,13.794,-70.496,16.663
0.167,0.930,-0.017,7.202,-68.665,16.724
0.114,1.046,-0.041,0.244,-71.045,12.390
0.083,1.068,-0.062,-3.113,-75.745,7.812
0.063,0.905,0.169,-1.465,-80.078,4.822
0.206,0.834,0.300,5.859,-77.576,7.385
0.298,0.834,0.438,12.451,-65.613,8.301
0.261,0.752,1.012,-20.386,-47.729,7.019
0.255,0.677,1.162,-19.653,-31.372,10.254
0.237,0.657,1.093,-10.681,-15.259,14.954
0.154,0.821,0.907,-7.751,2.930,16.541
0.039,1.141,0.537,0.977,16.846,12.146
-0.065,1.265,0.367,5.493,22.522,2.686
-0.114,1.140,0.496,10.010,26.367,-3.906
-0.007,0.968,0.316,28.259,32.959,-1.160
0.117,0.898,0.289,33.447,40.833,6.653
0.238,0.915,0.218,27.283,49.011,13.306
0.286,1.024,0.059,13.184,54.565,14.160
0.225,1.126,-0.154,-3.784,54.871,9.766
-0.006,1.221,0.029,-13.123,51.941,2.075
-0.137,0.979,0.244,-15.259,53.955,-4.333
0.002,0.902,-0.039,-17.334,54.810,-2.380
0.107,1.102,-0.100,-36.560,54.932,0.244
0.101,1.378,-0.458,-48.401,53.955,-3.296
-0.130,1.552,-0.423,-53.040,47.852,-11.841
-0.350,1.241,-0.274,-67.078,44.617,-18.494
-0.323,0.924,-0.452,-60.303,29.846,-11.963
-0.278,0.966,-0.580,-39.001,13.550,-3.113
-0.252,1.032,-0.401,-19.470,-0.366,-3.723
-0.121,0.966,-0.198,2.930,-12.207,-7.019
0.021,0.956,-0.195,24.109,-18.250,-8.423
0.044,1.040,-0.250,31.067,-17.151,-10.315
0.004,1.111,-0.224,26.733,-15.686,-13.306
-0.130,1.223,-0.362,23.437,-20.813,-15.076
-0.163,1.116,-0.320,16.602,-31.738,-15.747
-0.149,0.990,-0.302,9.399,-42.297,-11.230
-0.079,0.917,-0.314,5.676,-52.979,-8.240
-0.010,0.965,-0.414,-4.639,-61.035,-7.141
0.057,1.020,-0.435,-13.794,-67.566,-9.460
0.107,0.971,-0.382,-15.991,-77.576,-12.146
0.130,0.791,-0.175,-12.573,-88.135,-13.184
0.177,0.609,0.083,-1.648,-94.116,-9.155
0.299,0.587,0.167,15.564,-93.445,-2.686
0.347,0.703,0.321,28.687,-86.487,0.732
0.353,0.591,1.035,-0.122,-69.580,0.854
0.338,0.640,1.284,-6.958,-46.631,7.935
0.245,0.733,1.260,1.831,-23.499,12.695
0.131,0.917,0.989,-1.343,-2.502,14.526
-0.010,1.050,0.676,-7.874,11.719,9.949
-0.122,1.066,0.594,-22.949,23.621,1.892
-0.143,1.085,0.563,-13.794,34.119,-2.625
-0.068,0.903,0.501,-9.766,44.495,-3.296
0.143,0.687,0.624,-28.198,54.932,2.197
0.315,0.813,0.330,-28.931,66.223,6.897
0.239,1.046,0.104,-25.085,72.937,1.770
0.105,0.933,0.282,-40.710,82.520,-5.188
0.087,0.783,0.219,-35.461,89.966,-2.930
0.158,0.820,-0.034,-38.147,96.619,1.892
0.130,1.062,-0.340,-45.654,100.281,2.319
-0.037,1.338,-0.624,-53.040,96.008,-2.563
-0.291,1.374,-0.781,-62.500,86.121,-7.568
-0.651,1.096,-1.165,-76.416,68.787,-6.348
-0.900,1.590,-1.186,-66.406,45.166,-2.563
-0.597,1.320,-1.216,-8.240,4.456,-4.883
-0.243,1.007,-0.839,57.678,-36.987,-1.892
0.016,0.913,-0.334,79.651,-45.837,2.930
0.199,0.732,-0.098,71.594,-37.109,-0.854
0.234,0.914,-0.256,63.660,-33.386,-1.953

-0.429,0.896,-0.172,7.263,-34.668,5.676
-0.427,0.883,-0.162,7.629,-38.757,6.592
-0.429,0.882,-0.177,9.521,-44.922,7.446
-0.442,0.876,-0.227,12.695,-51.697,7.690
-0.457,0.863,-0.281,13.123,-56.641,7.568
-0.454,0.913,-0.369,20.447,-59.204,7.263
-0.443,0.851,-0.367,7.507,-59.814,7.568
-0.488,0.816,-0.306,-20.630,-57.495,9.094
-0.496,0.811,-0.244,-39.185,-54.321,10.315
-0.442,0.918,-0.222,-44.495,-52.002,13.489
-0.481,0.858,-0.225,-55.481,-48.279,15.259
-0.486,0.972,-0.016,-79.590,-36.682,12.146
-0.613,0.982,0.007,-76.477,-27.344,11.475
-0.677,0.744,0.144,-63.110,-23.804,16.113
-0.626,1.084,-0.147,-44.067,-24.780,9.399
-0.602,0.944,-0.216,-31.311,-25.269,0.427
-0.538,1.075,-0.347,-12.390,-35.034,-3.723
-0.492,1.085,-0.503,1.343,-41.687,-8.484
-0.442,1.021,-0.565,4.822,-45.898,-11.230
-0.411,0.953,-0.638,-3.113,-48.828,-11.047
-0.314,0.918,-0.576,-0.366,-52.979,-7.751
-0.237,0.733,-0.339,-4.150,-52.917,-1.160
-0.195,0.602,0.115,-20.813,-44.006,5.432
-0.098,0.689,0.430,-9.033,-34.180,8.118
-0.040,0.537,0.445,-12.268,-20.508,9.583
0.024,0.448,0.531,-36.011,-7.141,11.841
-0.012,0.626,0.681,-50.537,-0.610,12.390
-0.225,0.983,0.373,-10.315,-6.653,10.071
-0.259,1.003,0.255,14.099,-6.409,8.606
-0.196,0.853,0.212,-1.221,3.052,11.658
-0.224,0.904,0.135,1.953,13.611,16.235
-0.314,0.934,0.023,5.249,24.475,16.724
-0.358,1.044,-0.057,4.578,33.752,13.977
-0.438,0.886,0.031,-16.357,47.974,8.606
-0.289,0.755,0.035,-39.063,58.350,6.531
-0.211,0.709,0.026,-45.471,64.575,8.301
-0.141,0.691,-0.035,-50.781,70.251,12.268
-0.218,0.830,-0.256,-46.265,71.289,18.799
-0.455,1.164,-0.356,-36.804,72.205,24.414
-0.724,1.328,-0.555,-24.658,81.604,25.696
-0.862,0.669,-0.759,-40.771,101.074,25.146
-0.945,0.894,-0.501,-70.068,95.337,24.231
-0.974,1.237,-0.811,-62.317,76.294,19.165
-0.932,1.079,-1.130,-36.133,43.579,12.756
-0.945,1.052,-1.339,-24.902,3.601,10.498
-0.705,0.922,-1.034,-16.541,-24.597,7.385
-0.739,0.780,-1.030,-0.366,-36.194,9.888
-0.755,0.869,-1.089,14.160,-46.387,14.221
-0.813,0.804,-1.114,4.639,-54.016,12.146
-0.806,0.629,-1.247,0.793,-70.068,7.263
-0.632,0.791,-1.322,-8.789,-89.722,5.920
-0.404,0.818,-0.858,-22.766,-100.464,9.644
-0.754,0.384,0.160,-69.702,-67.200,25.940
-0.476,0.120,-0.509,-78.186,-62.866,32.837
-0.338,0.811,-0.412,-46.875,-113.281,24.231
-0.335,0.945,-0.522,7.507,-148.804,12.878
-0.086,0.747,-0.090,15.991,-149.780,12.756
-0.425,0.717,0.325,3.845,-108.154,13.672
-0.043,0.585,0.847,20.142,-59.448,11.047
0.051,0.618,1.138,3.113,-33.386,21.545
0.018,0.729,1.143,25.269,-19.714,18.433
-0.097,1.075,0.810,49.194,-9.033,12.268
-0.290,1.091,0.624,67.749,-3.296,0.854
-0.222,0.912,0.544,64.392,5.249,-0.305
-0.157,0.748,0.439,67.383,16.357,4.883
-0.171,0.712,0.249,70.251,25.452,7.996
