aX,aY,aZ,gX,gY,gZ
-0.953,0.394,0.072,-85.632,-38.757,93.262
-0.995,0.418,0.074,-80.322,-38.086,92.285
-1.033,0.428,0.061,-71.655,-35.950,91.675
-1.047,0.423,0.063,-63.599,-31.128,92.163
-1.039,0.407,0.082,-59.448,-25.513,92.896
-1.033,0.387,0.125,-56.946,-21.301,93.140
-1.031,0.413,0.143,-47.974,-17.822,92.529
-1.039,0.438,0.150,-43.030,-15.381,90.027
-1.046,0.463,0.116,-41.565,-14.099,86.853
-1.036,0.472,0.170,-42.358,-14.526,83.618
-1.010,0.482,0.103,-36.377,-12.756,80.322
-0.992,0.504,0.091,-36.072,-13.428,76.355
-0.983,0.515,0.061,-37.720,-14.465,71.716
-0.959,0.499,0.049,-38.635,-14.648,67.993
-0.944,0.486,0.049,-36.194,-15.930,65.552
-0.923,0.465,0.040,-33.142,-15.930,63.721
-0.895,0.447,0.046,-30.579,-15.808,61.584
-0.864,0.436,0.049,-27.954,-15.259,59.082
-0.826,0.419,0.041,-26.917,-14.282,56.519
-0.784,0.389,0.048,-27.954,-13.306,54.382
-0.727,0.364,0.036,-28.320,-12.878,53.406
-0.649,0.342,-0.048,-29.053,-12.329,52.795
-0.593,0.329,-0.133,-30.945,-16.724,52.856
-0.568,0.339,-0.239,-26.917,-24.780,54.626
-0.566,0.372,-0.275,-21.606,-35.278,58.167
-0.625,0.414,-0.237,-11.536,-46.875,62.988
-0.714,0.498,-0.131,4.028,-57.556,69.275
-0.841,0.603,0.013,20.081,-63.477,74.707
-0.954,0.710,0.129,34.302,-61.035,76.050
-1.042,0.782,0.192,40.222,-52.673,74.768
-1.091,0.818,0.202,42.664,-41.504,71.533
-1.095,0.745,0.129,7.568,-24.780,60.852
-1.066,0.674,0.205,-35.095,-8.789,45.288
-0.953,0.526,-0.108,16.541,-13.245,38.818
-1.039,0.516,-0.071,46.814,-28.931,34.729
-1.069,0.501,-0.155,34.119,-28.259,24.780
-1.156,0.639,-0.217,44.922,-29.541,10.864
-1.271,0.721,-0.083,48.828,-34.973,-5.493
-1.396,0.767,0.048,34.912,-31.250,-24.109
-1.475,0.698,0.133,12.878,-16.602,-43.945
-1.488,0.588,0.196,-11.902,-1.038,-63.782
-1.466,0.530,0.191,-22.217,8.240,-84.351
-1.472,0.500,0.102,-21.729,12.207,-105.774
-1.475,0.488,0.027,-22.400,14.099,-124.878
-1.513,0.551,0.025,-21.301,16.296,-142.334
-1.568,0.598,0.051,-16.541,20.203,-158.081
-1.603,0.648,0.087,0.610,24.780,-170.288
-1.612,0.651,0.132,20.630,30.762,-180.542
-1.617,0.625,0.190,42.969,37.476,-189.087
-1.588,0.573,0.182,63.354,43.274,-194.824
-1.558,0.467,0.283,63.782,47.302,-198.975
-1.509,0.371,0.289,76.233,51.208,-200.928
-1.444,0.330,0.250,90.576,53.772,-200.317
-1.377,0.257,0.295,85.022,40.771,-196.655
-1.329,0.227,0.204,72.021,32.043,-193.481
-1.279,0.229,0.184,68.115,33.386,-190.491
-1.225,0.233,0.151,66.223,34.363,-185.486
-1.154,0.247,0.128,71.228,34.241,-177.856
-1.068,0.232,0.077,82.703,33.936,-168.640
-0.997,0.204,0.019,95.581,35.095,-157.776
-0.939,0.138,0.014,102.478,37.659,-145.264
-0.900,0.086,0.012,109.009,40.405,-131.470
-0.868,0.044,0.006,112.915,42.969,-117.920
-0.844,0.005,-0.013,115.601,46.021,-105.164
-0.817,-0.022,-0.015,115.784,48.157,-93.811
-0.768,-0.033,-0.016,112.000,48.462,-83.313
-0.739,-0.070,-0.003,101.135,46.997,-72.937
-0.723,-0.102,-0.008,88.318,44.922,-62.317
-0.722,-0.122,0.001,77.454,42.236,-51.941
-0.745,-0.105,0.003,67.871,39.124,-42.480
-0.796,-0.085,0.031,55.969,36.133,-33.997
-0.851,-0.061,0.029,44.373,33.264,-26.062
-0.890,-0.043,0.012,34.363,30.212,-18.127
-0.915,-0.043,-0.008,25.024,27.771,-11.047
-0.932,-0.066,-0.037,15.747,26.489,-4.456
-0.937,-0.086,-0.071,7.996,25.940,2.319
-0.939,-0.094,-0.111,1.343,25.513,8.850
-0.950,-0.089,-0.135,-5.066,24.963,14.404
-0.975,-0.073,-0.157,-11.292,24.231,19.287
-1.009,-0.065,-0.182,-16.968,23.254,23.682
-1.036,-0.069,-0.203,-22.522,21.729,27.893
-1.053,-0.081,-0.221,-27.832,19.836,32.104
-1.061,-0.098,-0.242,-32.837,17.883,36.133
-1.047,-0.115,-0.255,-39.124,15.869,40.222
-1.029,-0.121,-0.265,-45.166,13.062,43.945
-1.004,-0.120,-0.268,-50.293,9.949,47.241
-0.983,-0.112,-0.255,-54.565,6.226,50.415
-0.966,-0.102,-0.244,-57.983,2.869,54.016
-0.952,-0.088,-0.217,-62.561,-0.732,58.289
-0.946,-0.072,-0.201,-66.223,-4.700,62.866
-0.954,-0.060,-0.193,-69.153,-9.583,67.871
-0.965,-0.044,-0.184,-70.740,-14.465,73.364
-0.965,-0.034,-0.186,-72.144,-19.958,79.468
-0.959,-0.027,-0.188,-73.547,-25.146,85.815
-0.963,-0.014,-0.185,-73.975,-29.114,92.285
-0.974,0.004,-0.166,-73.059,-32.471,98.816
-0.995,0.035,-0.151,-70.801,-35.767,105.469
-1.011,0.052,-0.131,-71.106,-39.063,111.328
-1.018,0.065,-0.122,-76.477,-42.664,116.638
-1.034,0.084,-0.132,-82.214,-46.265,121.094
-1.075,0.100,-0.110,-88.684,-50.171,125.000
-1.132,0.125,-0.082,-94.116,-52.429,128.113
-1.185,0.160,-0.059,-99.487,-53.345,130.676
-1.246,0.194,0.002,-104.858,-53.284,132.629
-1.307,0.238,0.029,-105.042,-52.246,135.010
-1.367,0.277,0.065,-104.675,-50.354,137.329
-1.407,0.312,0.057,-103.760,-47.546,140.381
-1.429,0.353,0.049,-102.905,-45.654,142.883
-1.438,0.402,0.031,-97.229,-44.312,144.592
-1.423,0.400,-0.022,-87.769,-42.847,145.874
-1.397,0.383,-0.065,-83.679,-43.884,146.606
-1.392,0.374,-0.095,-82.642,-44.617,146.484
-1.379,0.379,-0.093,-81.848,-40.894,143.555
-1.380,0.402,-0.041,-81.055,-34.973,137.268
-1.393,0.452,-0.002,-79.590,-29.419,128.906
-1.401,0.509,0.026,-76.538,-22.583,120.667
-1.415,0.586,0.026,-63.721,-14.832,114.990
-1.391,0.655,0.018,-53.528,1.770,113.037
-1.404,0.642,0.036,-59.021,1.099,110.962

-1.078,0.283,0.120,33.447,-22.644,106.995
-1.060,0.313,0.114,35.828,-23.315,97.168
-1.040,0.347,0.113,37.598,-19.836,88.257
-1.025,0.372,0.099,41.626,-15.747,80.688
-1.001,0.387,0.105,43.518,-12.085,74.219
-0.982,0.391,0.107,43.579,-9.888,68.115
-0.961,0.381,0.126,40.039,-8.545,62.134
-0.950,0.382,0.135,35.583,-7.690,56.458
-0.944,0.398,0.139,32.471,-7.019,50.964
-0.935,0.409,0.144,30.396,-5.615,45.654
-0.923,0.407,0.145,28.564,-3.235,40.466
-0.906,0.392,0.151,28.381,-1.160,34.973
-0.879,0.395,0.119,32.166,0.488,29.724
-0.935,0.403,0.104,36.377,1.099,22.461
-0.886,0.401,0.152,23.437,12.695,13.367
-0.929,0.384,0.098,-1.526,5.371,11.169
-0.908,0.388,0.177,-12.329,8.423,3.174
-0.923,0.384,0.120,-11.658,4.211,-1.770
-0.935,0.372,0.146,-3.540,8.850,-8.606
-0.947,0.334,0.119,12.451,11.780,-15.015
-0.949,0.326,0.107,27.466,14.343,-20.935
-0.960,0.332,0.088,34.790,14.893,-27.954
-0.983,0.352,0.071,34.668,15.564,-35.950
-1.004,0.338,0.042,28.809,16.296,-43.518
-1.016,0.381,0.042,24.414,16.541,-50.415
-1.041,0.406,0.031,23.743,16.541,-58.167
-1.078,0.450,0.047,22.522,17.334,-67.139
-1.122,0.462,0.054,20.264,19.653,-76.233
-1.148,0.458,0.055,17.761,21.545,-85.388
-1.169,0.459,0.020,16.602,22.400,-94.360
-1.197,0.447,0.004,15.381,22.644,-104.797
-1.254,0.450,0.022,6.409,22.522,-116.333
-1.318,0.432,0.038,-2.136,23.621,-128.662
-1.396,0.418,0.048,-11.047,25.024,-141.968
-1.469,0.407,0.072,-21.362,26.855,-155.945
-1.546,0.411,0.069,-26.672,28.564,-170.959
-1.620,0.433,0.071,-31.128,30.151,-186.218
-1.660,0.461,-0.026,-39.551,31.616,-202.087
-1.707,0.458,0.002,-65.430,28.931,-219.116
-1.761,0.466,-0.033,-81.421,26.672,-236.694
-1.824,0.452,-0.067,-91.858,23.682,-254.272
-1.882,0.428,-0.084,-100.098,18.677,-270.325
-1.922,0.416,-0.111,-104.187,12.512,-283.630
-1.951,0.411,-0.111,-103.088,6.042,-293.640
-1.951,0.415,-0.102,-96.191,0.427,-300.659
-1.940,0.403,-0.065,-86.426,-4.333,-304.382
-1.903,0.370,-0.041,-72.754,-6.897,-302.979
-1.835,0.330,-0.027,-55.847,-8.118,-298.218
-1.743,0.303,-0.017,-37.354,-8.606,-291.260
-1.632,0.265,-0.010,-20.142,-9.338,-283.447
-1.527,0.213,-0.003,-3.845,-10.864,-274.719
-1.424,0.166,0.000,12.146,-13.306,-266.479
-1.335,0.129,-0.035,25.635,-14.954,-259.338
-1.250,0.133,-0.047,35.706,-15.259,-250.549
-1.168,0.183,-0.059,43.701,-15.869,-240.845
-1.108,0.218,-0.074,48.279,-16.418,-231.140
-1.050,0.194,-0.087,49.805,-14.709,-220.215
-1.006,0.117,-0.077,50.964,-12.207,-207.153
-0.934,0.024,-0.074,53.833,-9.155,-193.909
-0.855,-0.051,-0.053,50.232,-6.836,-182.861
-0.785,-0.096,-0.035,46.448,-6.042,-170.959
-0.727,-0.150,-0.011,41.443,-5.432,-158.264
-0.671,-0.208,0.018,36.621,-4.761,-144.714
-0.613,-0.255,0.045,33.081,-3.967,-130.493
-0.552,-0.297,0.068,30.945,-2.808,-115.112
-0.496,-0.303,0.075,30.579,-2.014,-98.877
-0.441,-0.277,0.084,33.081,-0.977,-82.092
-0.390,-0.241,0.080,37.354,-0.122,-65.369
-0.350,-0.214,0.074,39.185,0.671,-47.974
-0.333,-0.196,0.087,36.682,0.610,-30.518
-0.322,-0.192,0.073,33.325,-0.366,-13.489
-0.333,-0.173,0.066,32.715,-2.319,3.174
-0.344,-0.145,0.085,30.823,-4.883,20.081
-0.375,-0.105,0.081,29.602,-7.263,36.438
-0.412,-0.057,0.076,28.992,-10.315,52.307
-0.454,-0.019,0.073,27.283,-13.367,67.444
-0.493,0.012,0.066,25.146,-15.320,81.482
-0.520,0.026,0.057,21.179,-16.541,94.910
-0.541,0.035,0.041,17.029,-17.456,107.727
-0.561,0.051,0.013,13.245,-18.921,119.202
-0.589,0.062,-0.006,9.705,-21.484,129.883
-0.618,0.078,-0.030,5.676,-24.353,140.320
-0.664,0.120,-0.049,2.625,-27.344,150.452
-0.726,0.159,-0.056,-1.404,-30.273,159.912
-0.793,0.175,-0.054,-6.226,-32.410,169.128
-0.864,0.183,-0.046,-11.230,-33.752,178.833
-0.936,0.169,-0.020,-17.578,-34.607,189.026
-1.004,0.159,-0.018,-23.254,-34.912,199.158
-1.067,0.175,-0.020,-28.320,-35.400,209.045
-1.128,0.205,-0.018,-33.875,-35.950,217.590
-1.203,0.234,-0.012,-38.635,-36.072,224.915
-1.273,0.253,-0.008,-42.053,-35.400,232.117
-1.346,0.271,-0.027,-44.373,-34.668,239.563
-1.411,0.280,-0.015,-47.485,-33.447,247.375
-1.464,0.286,-0.030,-46.692,-32.288,255.859
-1.527,0.296,-0.034,-44.434,-31.189,264.221
-1.594,0.301,-0.036,-41.077,-30.212,272.156
-1.670,0.322,-0.028,-35.522,-29.358,279.358
-1.761,0.346,0.006,-28.015,-28.748,285.400
-1.831,0.360,0.006,-19.104,-28.076,290.771
-1.899,0.357,0.004,-10.925,-29.907,293.213
-1.978,0.375,0.137,-20.203,-40.344,286.499
-1.943,0.224,0.083,-0.427,-55.237,290.405
-1.919,0.344,0.024,58.289,-28.442,278.931
-1.862,0.303,0.082,49.927,-28.564,287.476
-1.803,0.096,0.192,75.806,-23.865,279.846
-1.783,0.212,0.157,125.549,-31.372,251.648
-1.792,0.644,-0.399,103.760,-7.263,241.089
-1.564,0.404,0.313,-92.224,1.953,253.540
-1.433,0.212,0.165,-142.639,-26.672,257.874
-1.347,0.053,0.212,-63.904,-12.695,230.225
-1.269,0.087,0.212,37.537,-17.334,199.768
-1.245,0.142,0.137,98.389,-25.085,167.664
-1.217,0.172,0.127,117.798,-23.987,140.137
-1.172,0.146,0.144,112.549,-19.470,120.178
-1.136,0.115,0.148,101.929,-19.104,104.675
-1.112,0.095,0.134,91.736,-20.508,91.553
-1.083,0.068,0.121,79.407,-20.569,80.322
-1.067,0.054,0.091,70.496,-20.813,71.106

-0.675,0.181,-0.073,-14.954,-7.202,-145.630
-0.640,0.201,-0.066,-12.207,-5.676,-135.132
-0.593,0.212,-0.053,-8.606,-5.310,-123.535
-0.555,0.233,-0.047,-3.296,-5.127,-110.718
-0.528,0.238,-0.037,2.319,-3.845,-95.886
-0.509,0.231,-0.034,7.751,-4.272,-82.031
-0.491,0.223,-0.020,13.000,-5.615,-69.275
-0.484,0.207,-0.004,17.639,-6.226,-56.335
-0.474,0.184,0.010,21.057,-5.737,-42.786
-0.467,0.164,0.011,24.048,-5.432,-30.151
-0.459,0.155,0.009,26.245,-4.822,-18.494
-0.454,0.154,0.007,26.550,-4.639,-7.385
-0.451,0.151,0.005,25.452,-4.272,3.052
-0.454,0.147,0.005,22.705,-4.333,13.977
-0.463,0.142,0.008,18.555,-4.822,24.475
-0.477,0.149,0.004,14.954,-5.249,34.607
-0.490,0.162,0.003,11.169,-5.188,44.556
-0.502,0.181,-0.001,7.751,-5.493,54.626
-0.516,0.208,-0.012,5.981,-5.798,64.819
-0.535,0.233,-0.018,5.554,-6.042,74.646
-0.557,0.252,-0.026,6.592,-6.348,84.534
-0.579,0.261,-0.029,8.545,-6.714,94.543
-0.599,0.253,-0.039,9.827,-6.958,104.370
-0.615,0.223,-0.025,9.399,-7.812,114.258
-0.642,0.222,-0.043,8.789,-9.033,124.207
-0.664,0.200,-0.032,10.498,-10.620,134.155
-0.694,0.215,-0.047,15.259,-8.423,144.775
-0.738,0.227,-0.046,16.418,-8.484,155.884
-0.785,0.231,-0.036,13.916,-10.986,165.344
-0.836,0.238,-0.043,11.719,-13.672,174.316
-0.891,0.250,-0.042,7.263,-16.174,183.411
-0.945,0.257,-0.052,1.404,-19.409,192.749
-1.010,0.269,-0.048,-7.141,-22.522,202.576
-1.079,0.283,-0.054,-11.292,-23.132,213.745
-1.161,0.284,-0.061,-10.559,-23.010,224.792
-1.239,0.282,-0.136,-3.296,-23.499,235.596
-1.333,0.317,-0.170,6.226,-26.611,246.155
-1.447,0.370,-0.184,21.729,-30.518,256.287
-1.598,0.452,-0.186,42.297,-34.058,265.747
-1.745,0.579,-0.034,64.697,-36.377,273.315
-1.887,0.722,0.069,95.886,-34.424,277.588
-2.012,0.819,0.219,124.817,-30.884,279.785
-2.037,0.847,0.289,152.222,-26.611,279.724
-1.953,0.713,0.235,172.363,-23.315,274.292
-1.714,0.464,0.059,177.490,-20.264,263.367
-1.451,0.285,-0.120,171.692,-15.625,249.084
-1.230,0.162,-0.304,158.936,-15.442,229.614
-1.069,0.069,-0.364,144.226,-15.564,208.313
-0.979,0.039,-0.352,143.127,-16.052,188.843
-0.953,0.048,-0.266,152.283,-17.944,169.189
-0.958,0.052,-0.189,167.236,-22.339,149.170
-0.992,0.059,-0.174,194.336,-30.212,128.479
-1.026,0.059,-0.172,223.938,-38.818,109.436
-1.044,0.076,-0.196,246.155,-44.250,92.346
-1.074,0.089,-0.208,256.958,-46.753,75.623
-1.120,0.082,-0.222,261.719,-48.584,60.486
-1.176,0.005,-0.199,261.475,-49.377,48.706
-1.185,0.018,-0.226,248.291,-45.532,41.382
-1.231,0.073,-0.302,243.347,-43.030,34.607
-1.201,-0.153,-0.180,241.516,-40.833,22.949
-1.149,-0.216,-0.197,213.501,-36.011,16.174
-1.172,-0.228,-0.165,205.811,-33.447,13.000
-1.143,-0.283,-0.119,185.608,-28.992,6.165
-1.110,-0.296,-0.076,159.973,-27.466,-0.854
-1.097,-0.318,-0.042,134.460,-25.879,-5.554
-1.090,-0.365,0.024,108.337,-23.132,-9.460
-1.064,-0.366,0.084,80.872,-20.691,-16.602
-1.014,-0.324,0.123,51.392,-19.104,-23.682
-0.979,-0.262,0.153,21.729,-17.639,-28.564
-0.963,-0.190,0.170,-2.930,-15.869,-31.738
-0.950,-0.114,0.192,-20.203,-14.160,-33.813
-0.932,-0.049,0.212,-33.813,-12.573,-36.072
-0.954,-0.007,0.237,-45.044,-10.315,-39.001
-0.911,0.075,0.222,-55.969,-8.972,-38.757
-0.897,0.116,0.208,-68.298,-6.897,-39.856
-0.881,0.201,0.186,-75.684,-4.150,-39.063
-0.870,0.241,0.161,-78.552,-1.465,-36.987
-0.848,0.258,0.121,-80.139,2.014,-33.020
-0.821,0.261,0.081,-78.308,4.639,-26.978
-0.800,0.250,0.052,-72.021,6.714,-20.264
-0.783,0.238,0.022,-62.927,8.606,-13.062
-0.776,0.222,0.005,-52.673,10.376,-5.859
-0.791,0.209,-0.001,-41.565,12.146,-0.427
-0.798,0.199,-0.014,-31.067,13.916,4.761
-0.810,0.187,-0.014,-20.447,14.526,10.864
-0.833,0.169,-0.004,-10.193,15.015,16.724
-0.861,0.155,0.007,-1.160,15.503,21.790
-0.894,0.143,0.019,5.493,16.479,26.123
-0.929,0.117,0.025,8.545,17.395,29.358
-0.960,0.093,0.033,7.751,18.616,30.762
-0.990,0.066,0.032,3.113,19.592,31.250
-1.014,0.040,0.029,-5.066,21.057,29.785
-1.044,0.019,0.019,-14.832,21.790,28.137
-1.073,-0.017,0.008,-27.039,22.217,26.733
-1.099,-0.040,-0.015,-39.185,22.705,24.536
-1.119,-0.060,-0.044,-50.598,23.132,21.545
-1.142,-0.067,-0.068,-62.683,23.682,16.846
-1.164,-0.087,-0.092,-78.491,24.597,10.437
-1.192,-0.121,-0.087,-101.379,25.513,0.793
-1.243,-0.142,-0.091,-126.587,25.879,-10.071
-1.273,-0.135,-0.073,-147.278,24.597,-24.109
-1.310,-0.130,-0.065,-179.321,26.855,-40.100
-1.323,-0.118,-0.065,-213.196,30.090,-59.692
-1.335,-0.109,-0.063,-248.657,32.654,-82.214
-1.337,-0.085,-0.037,-287.598,37.048,-105.957
-1.263,0.208,0.008,-310.730,36.865,-129.822
-1.322,0.000,-0.227,-324.646,31.799,-152.527
-1.417,-0.058,-0.153,-349.731,28.809,-172.424
-1.361,0.151,-0.284,-327.148,27.039,-191.406
-1.359,0.208,-0.283,-318.787,21.362,-211.548
-1.371,0.278,-0.255,-306.763,13.672,-228.882
-1.415,0.322,-0.198,-290.222,7.019,-244.568
-1.398,0.314,-0.188,-274.658,-0.549,-256.714
-1.401,0.344,-0.123,-248.413,-8.606,-266.663
-1.414,0.378,-0.087,-221.069,-15.747,-273.254
-1.440,0.395,-0.029,-187.988,-21.362,-275.696
-1.449,0.504,-0.090,-145.142,-25.391,-274.170
-1.378,0.362,-0.359,-125.793,-30.579,-270.874
-1.500,0.292,0.202,-120.483,-29.724,-270.691

-0.844,0.225,-0.100,20.020,-61.768,-160.339
-0.777,0.217,-0.094,18.921,-58.533,-150.574
-0.710,0.217,-0.087,18.188,-54.199,-140.747
-0.650,0.219,-0.067,16.724,-50.110,-131.470
-0.599,0.232,-0.054,15.198,-46.509,-121.155
-0.559,0.252,-0.039,13.855,-42.725,-109.192
-0.538,0.266,-0.029,14.465,-38.940,-96.985
-0.515,0.282,-0.022,16.724,-34.851,-84.534
-0.486,0.289,-0.009,19.165,-30.518,-71.045
-0.460,0.281,-0.007,22.583,-26.672,-57.739
-0.436,0.278,0.001,27.649,-22.827,-43.823
-0.425,0.273,0.001,35.217,-19.226,-30.273
-0.412,0.285,0.013,44.800,-14.832,-16.907
-0.396,0.268,0.020,51.453,-10.376,-4.822
-0.381,0.224,0.019,49.927,-6.653,5.859
-0.382,0.208,0.022,47.180,-4.456,16.357
-0.394,0.189,0.022,44.189,-2.441,27.283
-0.406,0.176,0.015,39.063,-0.366,37.659
-0.423,0.179,0.004,33.325,1.587,47.546
-0.446,0.196,-0.011,27.283,3.418,56.824
-0.470,0.218,-0.028,22.156,5.188,65.857
-0.496,0.218,-0.035,18.677,6.531,75.012
-0.515,0.205,-0.038,17.517,7.874,84.839
-0.534,0.205,-0.047,19.165,9.705,95.642
-0.551,0.210,-0.046,22.949,11.780,106.934
-0.579,0.237,-0.058,29.297,13.245,118.347
-0.604,0.261,-0.093,36.438,14.282,129.700
-0.650,0.307,-0.090,39.490,13.611,141.174
-0.683,0.281,-0.063,45.532,12.329,152.283
-0.718,0.237,-0.085,51.025,12.939,162.415
-0.774,0.242,-0.086,53.223,13.977,178.162
-0.840,0.244,-0.097,52.429,11.841,192.932
-0.896,0.224,-0.105,50.842,8.667,205.322
-0.956,0.226,-0.119,50.232,5.859,218.079
-1.041,0.263,-0.145,50.842,2.808,231.628
-1.150,0.289,-0.150,52.917,-1.526,244.080
-1.282,0.332,-0.175,58.167,-6.775,255.432
-1.428,0.403,-0.146,63.416,-11.353,265.808
-1.578,0.466,-0.088,69.336,-16.479,275.757
-1.712,0.547,-0.078,84.167,-17.761,285.156
-1.839,0.651,0.054,103.149,-18.738,294.128
-1.946,0.752,0.112,138.245,-16.785,302.185
-1.956,0.804,0.121,177.185,-14.648,308.899
-1.892,0.787,0.083,215.393,-14.038,315.063
-1.734,0.709,0.008,249.207,-12.756,317.932
-1.602,0.561,-0.113,275.696,-13.184,315.063
-1.474,0.334,-0.176,293.396,-12.817,305.542
-1.316,-0.002,-0.150,287.964,-8.545,283.936
-1.314,0.104,-0.166,284.607,-8.545,257.751
-1.230,-0.097,-0.163,281.128,-10.803,228.455
-1.137,-0.060,-0.171,276.733,-15.808,206.055
-1.093,-0.030,-0.165,272.583,-22.339,183.289
-1.043,-0.046,-0.143,255.249,-25.818,159.668
-1.001,-0.055,-0.134,237.305,-27.222,137.451
-0.992,-0.042,-0.132,223.145,-27.771,117.798
-0.989,-0.079,-0.140,209.412,-27.222,99.182
-1.000,-0.130,-0.140,193.237,-26.428,80.872
-1.006,-0.206,-0.148,171.936,-25.269,64.392
-1.033,-0.220,-0.159,149.658,-23.437,50.415
-1.049,-0.247,-0.165,125.488,-20.935,37.109
-1.050,-0.263,-0.169,101.746,-17.639,25.452
-1.052,-0.261,-0.173,81.055,-14.465,15.137
-1.055,-0.240,-0.169,62.195,-11.841,6.348
-1.057,-0.234,-0.166,46.021,-9.460,-0.488
-1.061,-0.232,-0.165,31.372,-7.629,-5.432
-1.055,-0.249,-0.158,17.029,-7.263,-11.597
-1.048,-0.221,-0.145,3.967,-7.263,-17.822
-1.031,-0.186,-0.117,-9.521,-6.653,-23.621
-1.023,-0.134,-0.089,-21.179,-5.737,-27.466
-1.012,-0.091,-0.057,-30.640,-4.517,-30.579
-1.009,-0.038,-0.017,-38.147,-3.723,-33.508
-0.994,0.008,0.030,-45.654,-2.258,-36.194
-0.977,0.048,0.071,-51.514,0.366,-39.246
-0.964,0.095,0.112,-54.260,3.296,-41.504
-0.981,0.129,0.148,-57.007,6.653,-42.603
-0.940,0.161,0.128,-59.204,9.094,-40.710
-0.901,0.210,0.143,-56.702,11.475,-37.781
-0.883,0.241,0.138,-54.382,14.221,-37.354
-0.869,0.245,0.133,-51.392,15.442,-35.217
-0.852,0.245,0.128,-48.767,15.076,-32.288
-0.835,0.232,0.127,-44.800,13.672,-28.931
-0.827,0.217,0.122,-40.344,12.146,-25.330
-0.824,0.211,0.128,-39.490,11.719,-21.973
-0.828,0.187,0.130,-41.870,11.719,-20.874
-0.817,0.177,0.121,-48.279,11.841,-21.118
-0.806,0.194,0.096,-57.739,11.780,-22.034
-0.815,0.158,0.075,-69.031,10.742,-24.414
-0.834,0.147,0.061,-78.918,10.193,-26.550
-0.851,0.135,0.057,-87.036,9.460,-28.687
-0.873,0.122,0.043,-93.811,8.423,-30.640
-0.891,0.135,0.018,-99.121,7.629,-32.288
-0.911,0.134,-0.008,-105.774,7.019,-33.813
-0.934,0.113,-0.029,-115.417,6.104,-35.767
-0.950,0.088,-0.048,-132.629,4.822,-40.039
-1.003,0.057,0.019,-152.039,2.686,-42.664
-1.073,0.060,-0.120,-156.860,-0.061,-44.922
-1.074,0.208,-0.093,-164.978,-0.366,-51.331
-1.143,0.318,-0.103,-160.034,-0.549,-60.608
-1.245,0.276,-0.152,-158.203,4.150,-71.472
-1.301,0.420,-0.097,-150.208,11.047,-80.566
-1.373,0.547,-0.059,-137.146,16.296,-92.285
-1.389,0.491,-0.101,-136.658,20.996,-105.652
-1.435,0.502,-0.105,-138.367,26.550,-119.507
-1.418,0.415,-0.211,-145.386,27.954,-135.559
-1.401,0.323,-0.245,-153.992,25.635,-153.137
-1.401,0.238,-0.218,-162.170,20.691,-171.448
-1.440,0.207,-0.281,-162.781,13.367,-191.467
-1.481,0.211,-0.155,-172.119,8.118,-212.158
-1.515,0.275,-0.098,-169.006,1.953,-231.018
-1.544,0.356,-0.074,-157.043,-2.930,-245.117
-1.594,0.406,-0.011,-143.799,-5.676,-255.188
-1.591,0.452,0.026,-125.793,-7.263,-260.193
-1.581,0.455,0.075,-105.408,-9.399,-261.841
-1.562,0.463,0.077,-76.721,-10.132,-259.460
-1.528,0.379,0.085,-54.871,-9.644,-253.540
-1.466,0.310,0.101,-48.340,-8.667,-246.399
-1.427,0.302,0.160,-40.527,-6.592,-238.464
-1.306,0.179,0.027,-29.297,-4.395,-226.257
-1.218,0.112,0.058,-23.682,-4.944,-216.797

-0.987,0.180,0.106,-33.936,-19.043,41.260
-0.993,0.215,0.075,-32.654,-16.174,36.133
-0.976,0.234,0.094,-33.386,-9.399,31.738
-0.959,0.241,0.081,-34.363,-9.155,28.076
-0.946,0.257,0.074,-31.982,-7.629,23.865
-0.938,0.262,0.068,-25.696,-4.089,19.775
-0.935,0.261,0.066,-18.127,-0.916,14.893
-0.920,0.248,0.054,-10.620,1.587,9.644
-0.967,0.253,-0.001,-1.831,3.052,2.747
-0.943,0.246,0.098,0.671,11.230,-5.127
-0.963,0.196,0.057,3.174,7.629,-10.742
-0.982,0.180,0.028,4.395,10.315,-20.874
-0.994,0.170,0.041,5.188,14.099,-28.931
-1.006,0.160,0.026,7.568,15.259,-34.241
-1.017,0.146,0.023,11.963,18.738,-39.429
-1.027,0.127,0.013,16.052,21.606,-46.021
-1.041,0.115,0.001,18.738,23.621,-52.673
-1.063,0.103,-0.007,19.897,25.574,-59.387
-1.082,0.094,-0.014,19.470,27.283,-66.101
-1.109,0.059,-0.017,17.883,28.870,-73.853
-1.123,0.060,-0.024,15.137,30.579,-80.872
-1.149,0.066,-0.043,12.146,32.654,-87.646
-1.164,0.043,-0.038,8.118,34.485,-94.849
-1.195,0.032,-0.034,5.249,35.095,-103.699
-1.232,0.049,-0.021,3.052,35.889,-111.145
-1.275,0.076,-0.016,-0.122,37.598,-118.652
-1.328,0.093,0.001,-3.784,41.748,-125.549
-1.381,0.107,-0.007,-6.104,45.471,-130.981
-1.431,0.089,-0.026,-7.812,50.049,-139.771
-1.462,0.028,-0.059,-11.963,54.382,-150.940
-1.483,-0.001,-0.097,-13.489,57.495,-163.574
-1.517,-0.063,-0.094,-14.282,59.387,-177.246
-1.494,0.072,-0.150,-11.475,61.951,-190.613
-1.535,-0.017,-0.151,-12.817,66.406,-204.895
-1.578,-0.022,-0.139,-8.057,71.106,-216.980
-1.617,0.014,-0.127,2.991,75.195,-226.318
-1.652,0.053,-0.092,18.616,79.224,-233.276
-1.686,0.124,-0.059,42.175,85.083,-236.572
-1.711,0.186,0.026,69.580,92.773,-236.877
-1.730,0.386,-0.244,97.961,110.718,-241.394
-1.757,0.172,-0.029,20.020,92.712,-234.009
-1.731,0.125,-0.028,9.888,92.224,-226.807
-1.658,0.232,-0.058,17.273,99.182,-226.624
-1.601,0.195,-0.044,15.198,104.370,-228.271
-1.599,0.145,-0.017,9.583,93.750,-230.347
-1.575,0.137,-0.039,38.818,98.694,-223.755
-1.476,0.095,-0.014,52.124,104.675,-214.417
-1.384,0.047,-0.038,51.514,102.295,-205.017
-1.315,-0.001,-0.051,53.284,98.572,-198.975
-1.261,-0.047,-0.034,50.537,97.717,-193.787
-1.207,-0.055,-0.023,49.866,94.421,-188.599
-1.089,-0.057,-0.073,52.246,90.149,-179.932
-0.987,-0.098,0.010,45.471,85.815,-172.791
-0.917,-0.098,0.010,39.978,80.872,-168.457
-0.851,-0.095,0.040,33.386,75.439,-161.804
-0.788,-0.069,0.029,31.250,70.068,-155.029
-0.740,-0.055,0.040,27.222,65.063,-147.278
-0.703,-0.059,0.050,20.142,58.472,-138.611
-0.670,-0.062,0.056,16.479,52.307,-129.089
-0.661,-0.054,0.067,13.794,46.204,-120.422
-0.654,-0.063,0.073,13.000,40.161,-110.107
-0.650,-0.064,0.061,13.489,34.302,-98.877
-0.639,-0.068,0.052,11.963,28.931,-87.280
-0.609,-0.087,0.036,10.559,24.048,-74.402
-0.580,-0.102,0.019,8.789,18.738,-61.646
-0.554,-0.118,0.011,6.775,13.306,-49.438
-0.527,-0.117,0.002,5.493,7.568,-37.903
-0.509,-0.134,0.006,3.052,1.831,-25.574
-0.507,-0.138,0.007,-0.366,-3.784,-13.428
-0.515,-0.124,0.008,-3.906,-9.521,-1.953
-0.522,-0.111,0.007,-8.850,-15.198,10.315
-0.537,-0.091,0.010,-12.146,-20.874,22.034
-0.556,-0.084,0.019,-16.602,-25.879,33.936
-0.578,-0.072,0.023,-20.264,-30.457,46.692
-0.602,-0.061,0.030,-22.400,-34.851,58.838
-0.626,-0.074,0.031,-24.353,-39.673,70.557
-0.653,-0.066,0.012,-26.550,-44.312,82.520
-0.699,-0.009,-0.006,-28.748,-49.194,94.055
-0.725,-0.040,0.008,-32.654,-54.199,103.821
-0.752,-0.029,-0.017,-35.461,-59.204,114.685
-0.807,0.008,-0.035,-40.344,-63.843,125.854
-0.848,-0.009,0.012,-47.668,-68.970,136.780
-0.899,0.020,-0.019,-47.363,-73.059,146.851
-0.955,0.055,-0.034,-47.546,-74.829,158.081
-1.022,0.038,-0.053,-55.298,-78.125,168.762
-1.075,0.044,-0.030,-60.425,-81.787,179.077
-1.131,0.051,-0.033,-64.880,-84.534,188.538
-1.193,0.058,-0.040,-68.298,-87.708,197.632
-1.262,0.063,-0.045,-71.899,-91.125,206.421
-1.327,0.069,-0.052,-74.158,-94.238,215.271
-1.402,0.074,-0.043,-76.965,-96.680,222.961
-1.478,0.083,-0.053,-79.285,-97.717,229.614
-1.562,0.086,-0.032,-84.900,-97.778,235.168
-1.653,0.083,-0.041,-86.121,-95.764,239.624
-1.731,0.104,-0.036,-82.336,-91.309,242.249
-1.785,0.118,-0.034,-76.477,-87.830,244.324
-1.815,0.161,-0.047,-70.068,-83.008,245.239
-1.841,0.207,-0.052,-72.815,-77.332,248.657
-1.834,0.201,-0.036,-81.421,-72.632,254.944
-1.819,0.182,-0.019,-78.613,-69.763,257.019
-1.790,0.157,-0.003,-65.552,-66.345,254.028
-1.746,0.149,-0.014,-50.049,-62.805,248.230
-1.694,0.155,-0.016,-34.302,-59.082,240.295
-1.621,0.153,-0.040,-22.034,-55.359,230.835
-1.566,0.150,-0.042,-12.695,-51.575,219.543
-1.496,0.153,-0.038,-8.972,-47.852,209.045
-1.437,0.165,-0.027,-6.104,-44.067,198.669
-1.383,0.162,-0.010,-4.761,-41.626,187.439
-1.329,0.146,0.028,-1.099,-40.283,176.514
-1.293,0.191,-0.018,4.700,-36.438,166.260
-1.229,0.125,0.048,-4.639,-33.142,158.813
-1.192,0.073,0.017,-2.747,-37.598,144.653
-1.164,0.047,0.031,-2.258,-34.790,125.122
-1.150,0.067,0.008,-1.587,-33.325,109.436
-1.125,0.073,-0.000,-1.831,-31.006,98.022
-1.096,0.072,0.007,-3.052,-28.381,87.769
-1.080,0.090,-0.015,-3.723,-29.358,79.102
-1.075,0.097,-0.019,-3.357,-27.649,71.960
-1.069,0.103,-0.023,-1.648,-24.658,66.223

-0.650,0.449,0.145,-74.585,28.137,46.936
-0.649,0.374,0.150,-91.431,30.457,49.377
-0.646,0.339,0.113,-108.398,31.372,50.781
-0.639,0.266,0.106,-135.071,32.043,50.232
-0.643,0.244,0.104,-158.203,29.846,49.255
-0.662,0.298,0.037,-167.908,23.682,48.279
-0.736,0.357,-0.017,-168.396,17.395,48.279
-0.796,0.465,-0.064,-169.373,15.320,49.561
-0.842,0.583,-0.124,-171.204,13.428,48.767
-0.853,0.609,-0.157,-164.429,12.695,46.631
-0.807,0.622,-0.233,-155.212,15.259,45.166
-0.785,0.649,-0.286,-142.822,15.259,41.809
-0.736,0.658,-0.290,-129.883,13.672,37.964
-0.740,0.752,-0.310,-115.906,9.399,33.875
-0.737,0.815,-0.270,-102.966,5.676,31.189
-0.729,0.854,-0.212,-86.121,6.165,29.358
-0.737,0.862,-0.146,-72.632,8.423,27.405
-0.709,0.880,-0.232,-53.162,9.338,24.902
-0.658,0.790,-0.236,-46.265,9.338,24.109
-0.656,0.747,-0.222,-49.133,8.484,24.963
-0.658,0.752,-0.252,-51.575,5.859,23.926
-0.661,0.748,-0.288,-56.641,0.305,19.409
-0.677,0.744,-0.341,-65.063,-6.104,11.475
-0.703,0.759,-0.313,-77.576,-9.705,5.432
-0.704,0.783,-0.323,-87.463,-12.085,2.319
-0.705,0.843,-0.347,-90.637,-15.503,-2.075
-0.719,0.873,-0.360,-94.666,-18.127,-5.859
-0.726,0.855,-0.346,-98.999,-19.043,-9.338
-0.729,0.874,-0.353,-100.952,-19.592,-12.329
-0.731,0.890,-0.393,-98.511,-21.362,-14.832
-0.722,0.912,-0.440,-94.238,-23.865,-17.700
-0.726,0.886,-0.487,-90.881,-27.771,-20.752
-0.724,0.875,-0.515,-87.463,-31.677,-23.926
-0.734,0.878,-0.528,-85.083,-36.926,-26.428
-0.759,0.835,-0.510,-85.266,-42.480,-28.564
-0.794,0.794,-0.521,-82.397,-49.133,-31.128
-0.829,0.739,-0.557,-77.576,-58.350,-33.508
-0.900,0.728,-0.553,-77.209,-69.397,-36.865
-0.948,0.697,-0.511,-84.656,-76.172,-41.809
-0.952,0.773,-0.534,-88.379,-81.726,-44.434
-0.940,0.754,-0.539,-90.210,-82.458,-43.579
-0.969,0.755,-0.575,-82.458,-85.327,-44.678
-0.979,0.719,-0.641,-70.862,-90.515,-44.739
-0.981,0.678,-0.673,-62.927,-93.872,-44.189
-0.968,0.628,-0.705,-57.190,-96.985,-43.701
-0.954,0.582,-0.722,-56.396,-101.379,-43.823
-0.948,0.540,-0.736,-57.495,-106.995,-44.495
-0.931,0.494,-0.728,-57.617,-113.220,-43.335
-0.900,0.497,-0.693,-50.415,-119.812,-39.246
-0.873,0.528,-0.622,-35.095,-125.549,-33.813
-0.849,0.582,-0.558,-10.559,-129.639,-26.917
-0.826,0.687,-0.512,28.870,-131.958,-18.127
-0.781,0.790,-0.485,78.308,-132.080,-9.338
-0.740,0.882,-0.490,136.230,-131.165,-0.366
-0.711,0.934,-0.488,193.054,-128.662,9.583
-0.710,0.974,-0.437,242.859,-125.854,19.226
-0.703,0.975,-0.387,282.654,-121.887,28.015
-0.693,0.927,-0.415,312.866,-120.056,36.377
-0.657,0.871,-0.362,329.041,-122.864,46.265
-0.620,0.813,-0.390,341.919,-123.352,57.068
-0.592,0.682,-0.366,342.224,-125.671,65.979
-0.553,0.556,-0.362,328.674,-128.418,73.975
-0.490,0.453,-0.368,304.077,-134.644,82.214
-0.458,0.441,-0.398,286.011,-144.409,89.111
-0.501,0.503,-0.276,272.827,-156.067,93.567
-0.574,0.681,-0.085,272.461,-169.434,98.328
-0.665,0.845,0.123,283.020,-174.866,99.792
-0.751,1.038,0.315,303.650,-173.889,101.196
-0.807,1.189,0.416,340.271,-168.396,107.117
-0.802,1.275,0.446,385.132,-157.104,117.615
-0.736,1.235,0.360,428.589,-146.912,126.282
-0.533,1.039,0.253,463.379,-143.433,128.357
-0.615,0.910,0.153,488.525,-147.522,119.690
-0.586,0.673,0.089,501.099,-153.259,113.403
-0.573,0.612,0.187,516.174,-150.757,111.145
-0.502,0.533,0.266,527.893,-155.518,108.948
-0.477,0.283,0.254,544.617,-175.232,108.948
-0.490,0.107,0.319,517.273,-190.613,103.149
-0.510,-0.109,0.388,459.473,-193.970,96.069
-0.530,-0.233,0.565,404.114,-186.829,81.238
-0.587,-0.300,0.627,362.305,-185.547,65.552
-0.653,-0.422,0.768,306.885,-184.143,46.570
-0.681,-0.335,0.970,241.455,-178.772,20.630
-0.704,-0.166,1.011,184.753,-176.819,0.061
-0.730,-0.028,1.016,130.249,-171.448,-9.949
-0.712,-0.003,1.028,81.726,-158.997,-13.123
-0.702,0.064,1.052,51.514,-145.691,-11.963
-0.681,0.146,1.056,31.616,-131.897,-7.935
-0.674,0.143,1.014,17.578,-120.605,-2.747
-0.607,0.109,1.013,5.310,-108.643,3.906
-0.568,0.057,0.999,-6.836,-97.290,9.705
-0.534,0.039,1.012,-20.081,-86.792,12.817
-0.524,0.063,1.025,-34.790,-78.369,13.184
-0.509,0.109,1.016,-50.476,-70.984,13.245
-0.497,0.163,1.000,-64.575,-63.843,12.390
-0.489,0.201,0.993,-74.219,-57.007,11.536
-0.489,0.271,0.970,-73.364,-50.598,12.146
-0.489,0.322,0.951,-64.941,-44.983,13.489
-0.484,0.327,0.933,-56.152,-38.696,15.137
-0.483,0.302,0.915,-46.204,-32.043,17.029
-0.479,0.245,0.887,-39.429,-26.062,19.409
-0.485,0.182,0.855,-34.973,-21.606,22.766
-0.512,0.154,0.841,-32.227,-17.029,24.475
-0.548,0.131,0.806,-32.837,-13.184,23.865
-0.585,0.130,0.784,-33.630,-9.033,23.132
-0.618,0.122,0.768,-34.668,-4.333,23.315
-0.637,0.109,0.727,-35.339,0.427,24.231
-0.648,0.106,0.688,-37.720,5.249,25.879
-0.657,0.109,0.662,-40.710,9.705,27.039
-0.662,0.136,0.647,-43.396,12.939,27.222
-0.672,0.189,0.624,-42.847,15.137,26.123
-0.688,0.253,0.628,-39.368,16.235,23.376
-0.709,0.320,0.647,-31.250,16.968,19.714
-0.722,0.358,0.656,-20.691,17.639,17.029
-0.726,0.355,0.652,-11.353,18.738,15.747
-0.731,0.320,0.639,-3.845,19.653,15.747
-0.734,0.277,0.614,1.648,21.057,16.174
-0.725,0.233,0.595,4.150,22.400,16.418
-0.724,0.209,0.564,3.723,23.071,15.747

-0.616,0.766,-0.206,0.000,-4.700,-1.770
-0.616,0.765,-0.197,0.366,-5.371,-2.319
-0.618,0.762,-0.192,1.099,-5.615,-2.625
-0.626,0.756,-0.187,1.587,-5.676,-3.113
-0.631,0.748,-0.187,1.709,-5.432,-3.418
-0.637,0.751,-0.196,2.014,-5.554,-3.662
-0.640,0.755,-0.207,2.075,-5.493,-4.028
-0.644,0.756,-0.209,1.587,-5.615,-4.272
-0.644,0.760,-0.208,1.709,-5.859,-4.333
-0.643,0.756,-0.202,2.258,-5.859,-4.333
-0.640,0.748,-0.195,1.648,-5.798,-4.456
-0.638,0.747,-0.193,0.793,-5.798,-4.456
-0.636,0.755,-0.201,0.305,-5.554,-4.700
-0.638,0.766,-0.208,0.244,-5.493,-4.883
-0.638,0.778,-0.221,0.000,-6.042,-5.188
-0.641,0.787,-0.238,0.000,-6.531,-5.493
-0.649,0.787,-0.245,0.122,-7.141,-6.104
-0.661,0.779,-0.249,0.610,-8.545,-6.653
-0.672,0.770,-0.248,0.732,-9.949,-6.775
-0.686,0.763,-0.241,0.549,-11.108,-7.019
-0.702,0.748,-0.229,-0.061,-12.207,-7.446
-0.719,0.740,-0.219,1.282,-13.428,-7.568
-0.739,0.741,-0.219,6.592,-14.587,-6.836
-0.762,0.739,-0.217,12.878,-16.174,-6.104
-0.781,0.744,-0.204,17.700,-17.456,-5.310
-0.785,0.752,-0.177,20.447,-18.860,-4.761
-0.781,0.762,-0.150,23.315,-20.386,-4.028
-0.778,0.747,-0.141,24.780,-21.301,-4.211
-0.781,0.731,-0.121,24.597,-22.034,-4.700
-0.774,0.721,-0.110,24.963,-23.071,-4.517
-0.767,0.728,-0.131,26.062,-24.780,-4.211
-0.758,0.694,-0.145,18.799,-28.076,-6.042
-0.764,0.701,-0.184,10.010,-32.837,-10.010
-0.776,0.630,-0.249,-9.888,-39.856,-14.587
-0.767,0.563,-0.367,-32.532,-46.082,-17.944
-0.758,0.535,-0.443,-57.861,-54.382,-21.423
-0.741,0.558,-0.478,-77.942,-65.247,-25.269
-0.763,0.693,-0.618,-78.613,-76.843,-28.137
-0.820,0.759,-0.631,-83.069,-87.952,-29.785
-0.829,0.838,-0.588,-83.069,-92.346,-26.672
-0.816,0.889,-0.470,-71.533,-93.384,-20.203
-0.842,0.972,-0.365,-43.762,-95.337,-14.404
-0.881,1.100,-0.272,-10.254,-96.863,-7.812
-0.910,1.106,-0.250,26.550,-101.379,-3.174
-0.905,1.009,-0.325,61.523,-105.957,-0.366
-0.873,0.879,-0.411,91.309,-110.046,2.808
-0.860,0.812,-0.461,118.530,-113.525,7.812
-0.823,0.742,-0.539,141.602,-117.126,11.963
-0.796,0.708,-0.625,162.598,-121.826,15.503
-0.801,0.713,-0.662,183.350,-128.113,19.104
-0.838,0.730,-0.634,204.102,-135.437,22.095
-0.869,0.769,-0.607,227.783,-141.724,25.879
-0.899,0.809,-0.549,255.432,-147.949,29.358
-0.925,0.838,-0.485,285.645,-153.870,32.532
-0.934,0.858,-0.405,318.176,-159.668,35.706
-0.912,0.861,-0.386,356.262,-164.856,39.246
-0.880,0.825,-0.438,392.517,-171.570,43.518
-0.842,0.749,-0.505,420.532,-179.687,48.157
-0.785,0.666,-0.643,431.946,-187.622,52.002
-0.739,0.603,-0.783,425.842,-190.674,55.237
-0.777,0.476,-0.630,419.495,-191.833,58.105
-0.718,0.484,-0.666,429.626,-200.012,65.063
-0.706,0.493,-0.698,437.744,-207.581,66.040
-0.735,0.492,-0.689,442.444,-215.088,62.988
-0.767,0.469,-0.615,445.312,-222.351,60.059
-0.746,0.439,-0.561,449.280,-226.501,58.411
-0.774,0.367,-0.473,450.500,-228.455,55.237
-0.801,0.300,-0.409,450.928,-228.394,46.570
-0.807,0.272,-0.300,451.355,-224.426,36.072
-0.792,0.275,-0.223,449.951,-220.947,24.536
-0.772,0.219,-0.103,444.092,-218.872,12.695
-0.738,0.145,0.039,435.425,-216.675,0.183
-0.820,0.239,-0.299,427.917,-208.252,-1.343
-0.840,-0.201,0.124,389.893,-177.917,0.183
-0.812,-0.166,0.143,380.676,-171.509,-12.390
-0.767,-0.392,0.003,382.019,-171.997,-0.366
-0.751,-0.595,-0.061,370.361,-169.189,-7.324
-0.781,-0.770,0.003,303.772,-158.875,-18.433
-0.801,-0.890,0.120,227.905,-145.996,-21.729
-0.838,-1.053,0.243,160.889,-133.057,-22.461
-0.879,-0.881,0.471,94.971,-115.356,-31.250
-0.914,-0.705,0.671,49.316,-106.873,-44.189
-0.932,-0.510,0.805,32.288,-107.117,-53.406
-0.947,-0.421,0.874,20.813,-102.295,-53.345
-0.945,-0.333,0.954,7.568,-90.149,-48.340
-0.977,-0.325,0.993,0.244,-75.012,-38.513
-1.013,-0.345,0.999,-12.451,-60.425,-24.170
-1.042,-0.350,1.016,-28.625,-47.241,-7.202
-1.070,-0.357,1.031,-42.725,-35.583,8.118
-1.074,-0.326,1.037,-54.932,-24.109,21.484
-1.058,-0.243,1.017,-63.110,-14.465,31.921
-1.023,-0.153,0.986,-67.932,-6.897,38.879
-0.980,-0.063,0.954,-70.557,-0.366,43.884
-0.955,0.034,0.929,-71.289,5.737,48.584
-0.938,0.112,0.905,-70.190,11.292,52.612
-0.923,0.182,0.880,-68.481,16.479,55.542
-0.908,0.238,0.862,-65.002,20.569,58.105
-0.906,0.271,0.838,-59.143,23.682,59.875
-0.898,0.275,0.817,-51.086,26.489,61.462
-0.907,0.268,0.805,-48.401,28.992,60.669
-0.903,0.312,0.720,-42.908,32.288,60.913
-0.859,0.290,0.642,-46.204,35.645,58.838
-0.816,0.335,0.543,-34.790,33.752,55.969
-0.811,0.366,0.487,-30.518,33.508,53.711
-0.817,0.368,0.461,-31.006,32.288,48.950
-0.807,0.354,0.447,-27.893,30.640,43.884
-0.816,0.326,0.451,-26.123,28.870,37.964
-0.803,0.273,0.468,-24.353,28.137,33.142
-0.813,0.242,0.486,-21.790,26.550,28.015
-0.830,0.206,0.505,-21.545,24.963,24.048
-0.832,0.198,0.493,-20.386,24.963,21.362
-0.821,0.212,0.455,-18.494,24.719,19.531
-0.810,0.215,0.411,-17.700,22.949,17.090
-0.792,0.224,0.356,-16.968,20.996,15.015
-0.778,0.245,0.314,-16.113,18.555,13.000
-0.777,0.259,0.296,-14.404,15.076,10.498
-0.774,0.254,0.299,-12.878,12.024,8.179
-0.770,0.254,0.325,-11.658,9.521,6.226
-0.776,0.250,0.335,-9.033,7.935,4.211

-1.106,-0.125,-0.108,18.188,-16.418,2.197
-1.078,-0.154,-0.071,15.686,-13.489,2.075
-1.042,-0.175,-0.025,12.207,-9.521,2.502
-1.000,-0.193,-0.032,11.414,-6.470,2.991
-0.960,-0.226,-0.059,8.606,-6.104,2.930
-0.944,-0.234,-0.080,3.845,-7.324,3.418
-0.963,-0.215,-0.087,-1.648,-8.789,3.662
-0.985,-0.196,-0.096,-7.507,-9.583,3.601
-1.005,-0.206,-0.097,-12.939,-10.559,4.639
-1.004,-0.217,-0.093,-18.005,-11.658,7.568
-0.993,-0.189,-0.092,-23.682,-12.268,10.742
-0.979,-0.214,-0.088,-31.677,-12.817,12.817
-0.951,-0.173,-0.081,-38.452,-12.878,14.587
-0.930,-0.128,-0.084,-48.767,-13.550,14.465
-0.904,-0.069,-0.090,-60.364,-14.893,13.306
-0.882,-0.006,-0.108,-70.190,-17.639,12.207
-0.865,0.054,-0.099,-76.782,-20.874,11.536
-0.861,0.111,-0.075,-79.407,-23.560,11.475
-0.865,0.162,-0.042,-77.393,-25.391,12.451
-0.894,0.211,0.018,-70.496,-26.794,14.526
-0.943,0.261,0.101,-60.120,-26.062,17.822
-0.999,0.303,0.207,-50.781,-21.973,21.973
-1.016,0.323,0.245,-42.725,-14.648,26.489
-0.986,0.323,0.235,-34.729,-8.423,30.396
-0.966,0.411,0.207,-29.358,-4.333,30.212
-0.972,0.466,0.120,-31.250,-3.235,25.391
-0.995,0.523,0.070,-34.912,-4.028,19.531
-1.050,0.611,0.057,-38.147,-5.249,12.207
-1.093,0.682,0.022,-33.630,-4.944,4.150
-1.131,0.731,0.021,-27.893,-4.028,-5.615
-1.178,0.789,0.043,-17.944,-0.366,-16.663
-1.237,0.814,0.051,-4.150,5.920,-29.968
-1.266,0.767,0.071,1.770,13.672,-46.082
-1.280,0.695,0.079,3.296,19.897,-63.843
-1.310,0.626,0.092,3.906,24.475,-81.665
-1.358,0.543,0.119,2.930,28.015,-98.572
-1.417,0.496,0.141,0.061,32.410,-114.441
-1.465,0.494,0.165,-5.371,36.743,-130.432
-1.498,0.512,0.188,-11.536,40.649,-146.606
-1.519,0.641,0.163,-14.648,38.269,-158.020
-1.553,0.579,0.142,-21.179,44.495,-164.856
-1.584,0.599,0.146,-14.038,54.077,-177.673
-1.628,0.647,0.142,-7.874,60.120,-193.481
-1.636,0.678,0.114,0.183,59.631,-208.130
-1.637,0.583,0.103,0.977,55.603,-218.262
-1.636,0.465,0.073,-5.920,52.429,-228.149
-1.622,0.437,0.094,-8.545,52.368,-239.136
-1.597,0.482,0.067,-5.432,48.828,-245.361
-1.552,0.521,0.049,0.793,45.288,-250.916
-1.503,0.545,0.041,3.296,40.771,-255.005
-1.468,0.556,0.007,8.667,34.973,-253.540
-1.433,0.563,-0.032,11.292,34.973,-252.441
-1.391,0.575,-0.044,7.629,35.217,-252.563
-1.350,0.560,-0.064,0.000,31.860,-251.892
-1.326,0.559,-0.052,-2.930,27.100,-250.854
-1.316,0.573,-0.081,0.305,22.827,-248.657
-1.208,0.466,-0.058,3.662,20.203,-240.173
-1.182,0.446,-0.078,4.150,13.672,-235.901
-1.127,0.388,-0.078,3.296,10.925,-233.398
-1.103,0.374,-0.101,3.235,10.254,-231.262
-1.037,0.355,-0.083,1.953,11.719,-227.783
-0.992,0.324,-0.076,0.977,11.475,-222.656
-0.934,0.294,-0.058,3.357,12.268,-215.759
-0.882,0.255,-0.053,9.460,13.367,-205.444
-0.837,0.204,-0.030,16.357,14.893,-192.749
-0.794,0.161,-0.027,23.926,16.541,-180.115
-0.759,0.150,-0.029,30.884,17.639,-167.114
-0.719,0.128,-0.028,37.415,18.311,-153.748
-0.680,0.110,-0.031,43.091,19.714,-139.526
-0.649,0.083,-0.038,47.180,20.569,-125.000
-0.619,0.056,-0.025,53.528,21.362,-109.619
-0.601,0.041,-0.030,61.157,23.376,-93.872
-0.576,0.011,-0.015,63.110,24.292,-79.224
-0.543,-0.018,-0.007,62.012,23.499,-64.880
-0.513,-0.040,-0.011,58.960,21.667,-51.147
-0.488,-0.059,-0.020,52.368,19.348,-38.330
-0.463,-0.075,-0.027,41.870,16.113,-26.733
-0.444,-0.081,-0.026,29.968,12.573,-16.052
-0.434,-0.074,-0.021,17.822,8.606,-5.676
-0.426,-0.058,-0.020,7.568,5.005,4.456
-0.427,-0.034,-0.024,-0.244,1.526,14.648
-0.434,-0.009,-0.034,-5.127,-1.709,25.269
-0.438,0.011,-0.048,-8.362,-4.883,36.560
-0.439,0.034,-0.066,-10.315,-7.690,48.401
-0.454,0.082,-0.075,-11.047,-11.047,60.974
-0.480,0.132,-0.082,-12.390,-14.526,72.693
-0.512,0.170,-0.070,-14.282,-17.944,84.045
-0.544,0.208,-0.061,-15.015,-21.057,95.276
-0.580,0.236,-0.047,-13.428,-23.926,106.445
-0.613,0.235,-0.033,-10.620,-26.428,117.126
-0.648,0.218,-0.022,-7.568,-28.992,128.174
-0.682,0.208,-0.023,-5.371,-30.945,139.954
-0.718,0.230,-0.035,-3.479,-33.020,151.611
-0.763,0.266,-0.045,-3.113,-35.461,161.926
-0.814,0.296,-0.047,-4.395,-37.842,171.143
-0.874,0.337,-0.053,-4.883,-39.551,179.504
-0.934,0.366,-0.066,-5.066,-41.565,186.951
-0.990,0.366,-0.069,-4.761,-44.373,193.726
-1.032,0.329,-0.063,-4.639,-47.485,200.562
-1.061,0.304,-0.086,-4.395,-49.866,207.458
-1.087,0.292,-0.106,-6.165,-52.063,213.196
-1.124,0.274,-0.118,-11.169,-54.138,218.018
-1.171,0.256,-0.114,-17.334,-55.359,222.900
-1.220,0.269,-0.093,-20.325,-55.359,227.905
-1.286,0.319,-0.054,-21.179,-55.298,233.337
-1.369,0.427,-0.024,-19.775,-55.115,236.816
-1.466,0.536,0.007,-17.883,-54.932,237.610
-1.543,0.559,-0.014,-13.916,-55.664,237.244
-1.582,0.555,-0.002,-9.460,-56.519,237.610
-1.599,0.518,0.000,-9.583,-58.655,237.610
-1.603,0.467,-0.023,-11.230,-60.303,238.647
-1.618,0.472,-0.021,-21.851,-59.387,240.784
-1.593,0.543,-0.108,-54.626,-56.274,246.887
-1.623,0.482,0.063,-116.943,-46.936,251.831
-1.628,0.432,0.075,-116.577,-45.532,257.568
-1.630,0.382,0.082,-83.984,-50.720,257.446
-1.655,0.341,0.091,-41.809,-56.030,250.916
-1.668,0.355,0.067,6.409,-60.364,243.225
-1.657,0.404,0.069,41.077,-62.012,235.596

-0.993,-0.189,-0.092,-23.682,-12.268,10.742
-0.979,-0.214,-0.088,-31.677,-12.817,12.817
-0.951,-0.173,-0.081,-38.452,-12.878,14.587
-0.930,-0.128,-0.084,-48.767,-13.550,14.465
-0.904,-0.069,-0.090,-60.364,-14.893,13.306
-0.882,-0.006,-0.108,-70.190,-17.639,12.207
-0.865,0.054,-0.099,-76.782,-20.874,11.536
-0.861,0.111,-0.075,-79.407,-23.560,11.475
-0.865,0.162,-0.042,-77.393,-25.391,12.451
-0.894,0.211,0.018,-70.496,-26.794,14.526
-0.943,0.261,0.101,-60.120,-26.062,17.822
-0.999,0.303,0.207,-50.781,-21.973,21.973
-1.016,0.323,0.245,-42.725,-14.648,26.489
-0.986,0.323,0.235,-34.729,-8.423,30.396
-0.966,0.411,0.207,-29.358,-4.333,30.212
-0.972,0.466,0.120,-31.250,-3.235,25.391
-0.995,0.523,0.070,-34.912,-4.028,19.531
-1.050,0.611,0.057,-38.147,-5.249,12.207
-1.093,0.682,0.022,-33.630,-4.944,4.150
-1.131,0.731,0.021,-27.893,-4.028,-5.615
-1.178,0.789,0.043,-17.944,-0.366,-16.663
-1.237,0.814,0.051,-4.150,5.920,-29.968
-1.266,0.767,0.071,1.770,13.672,-46.082
-1.280,0.695,0.079,3.296,19.897,-63.843
-1.310,0.626,0.092,3.906,24.475,-81.665
-1.358,0.543,0.119,2.930,28.015,-98.572
-1.417,0.496,0.141,0.061,32.410,-114.441
-1.465,0.494,0.165,-5.371,36.743,-130.432
-1.498,0.512,0.188,-11.536,40.649,-146.606
-1.519,0.641,0.163,-14.648,38.269,-158.020
-1.437,0.094,-0.125,-54.504,28.137,-169.373
-1.434,0.130,-0.060,-48.096,25.146,-178.955
-1.386,0.340,-0.101,-24.841,25.818,-192.871
-1.437,0.329,-0.070,-23.865,23.987,-207.458
-1.509,0.339,-0.132,-30.212,25.208,-218.811
-1.618,0.277,-0.090,-38.025,29.053,-229.858
-1.677,0.313,-0.037,-42.114,35.339,-240.784
-1.731,0.381,-0.039,-38.940,39.185,-250.366
-1.757,0.409,-0.071,-37.354,39.612,-257.446
-1.714,0.312,-0.238,-35.645,37.659,-261.169
-1.837,0.257,0.005,-31.677,37.903,-265.015
-1.721,0.391,-0.110,-8.179,40.710,-266.052
-1.677,0.434,-0.130,9.216,33.325,-264.404
-1.654,0.381,-0.113,1.526,27.527,-261.780
-1.609,0.312,-0.099,-1.587,29.114,-256.348
-1.531,0.241,-0.050,0.549,33.752,-251.892
-1.449,0.204,-0.006,8.728,37.415,-249.695
-1.339,0.171,0.033,17.517,38.574,-246.765
-1.249,0.175,0.035,24.719,36.499,-240.112
-1.152,0.112,0.032,24.780,34.912,-231.384
-1.059,0.079,0.038,25.330,33.325,-221.802
-0.976,0.071,0.029,27.222,32.776,-212.769
-0.893,0.073,0.009,28.198,32.776,-202.942
-0.815,0.084,-0.018,29.175,32.043,-192.810
-0.747,0.079,-0.023,30.579,29.175,-182.007
-0.690,0.085,-0.029,31.494,26.672,-169.678
-0.654,0.109,-0.040,27.100,23.743,-155.701
-0.628,0.076,0.003,15.442,20.691,-138.916
-0.599,0.053,0.008,17.456,19.714,-125.610
-0.570,0.033,0.016,19.958,18.250,-112.549
-0.547,0.018,0.014,22.644,15.808,-98.755
-0.522,-0.003,0.015,24.780,13.855,-84.473
-0.497,-0.031,0.005,24.841,12.207,-70.313
-0.475,-0.053,-0.002,23.132,10.010,-56.763
-0.452,-0.061,0.003,20.020,8.362,-44.312
-0.433,-0.066,0.004,16.418,6.714,-32.104
-0.405,-0.064,0.013,13.184,4.333,-19.592
-0.387,-0.056,0.016,10.498,1.587,-7.141
-0.385,-0.044,0.016,8.301,-1.343,5.249
-0.391,-0.021,0.026,6.165,-4.150,18.372
-0.378,-0.013,0.040,3.601,-6.958,31.006
-0.425,0.013,0.032,0.244,-9.888,43.884
-0.449,0.049,0.032,0.366,-12.451,56.946
-0.468,0.052,0.028,-1.648,-15.381,68.848
-0.498,0.092,0.010,-3.052,-17.578,81.848
-0.526,0.113,0.001,-4.883,-20.081,93.567
-0.553,0.122,-0.018,-6.042,-23.560,104.614
-0.591,0.150,-0.043,-6.104,-26.917,116.638
-0.627,0.167,-0.059,-8.545,-30.884,127.808
-0.660,0.152,-0.055,-12.512,-35.217,138.184
-0.700,0.148,-0.060,-16.235,-39.124,149.231
-0.738,0.132,-0.054,-20.630,-42.603,160.339
-0.792,0.150,-0.062,-24.658,-45.898,172.119
-0.849,0.152,-0.059,-26.917,-48.401,183.533
-0.910,0.159,-0.066,-27.161,-50.842,194.275
-0.969,0.156,-0.070,-26.733,-53.589,204.529
-1.046,0.198,-0.091,-23.926,-56.213,215.515
-1.115,0.196,-0.121,-20.081,-59.326,225.952
-1.194,0.225,-0.082,-19.958,-63.843,236.816
-1.294,0.252,-0.100,-11.353,-66.711,247.314
-1.409,0.288,-0.112,1.892,-69.458,258.240
-1.510,0.311,-0.103,14.038,-72.693,269.287
-1.602,0.335,-0.098,28.870,-75.195,279.846
-1.679,0.356,-0.079,43.884,-77.637,287.903
-1.718,0.361,-0.104,60.608,-80.017,294.861
-1.790,0.368,-0.086,69.824,-79.407,297.119
-1.833,0.364,0.031,84.351,-76.416,295.959
-1.823,0.347,-0.023,121.582,-80.017,299.133
-1.782,0.321,-0.049,141.174,-84.045,300.415
-1.736,0.280,-0.066,157.410,-83.618,294.800
-1.664,0.189,-0.064,168.213,-80.566,286.621
-1.589,0.082,-0.015,178.589,-78.979,277.588
-1.527,0.137,-0.107,170.471,-75.195,266.174
-1.522,0.196,-0.072,182.861,-73.669,249.695
-1.440,0.045,-0.037,185.730,-73.792,227.600
-1.367,-0.002,-0.044,180.237,-73.425,209.778
-1.313,-0.027,-0.030,176.697,-73.975,192.078
-1.253,-0.078,-0.023,161.560,-72.815,174.255
-1.220,-0.147,-0.018,141.296,-72.144,156.738
-1.195,-0.191,-0.012,117.554,-71.228,141.174
-1.189,-0.207,-0.012,93.384,-69.397,125.732
-1.159,-0.269,-0.009,66.162,-64.880,109.375
-1.145,-0.274,-0.013,41.687,-60.425,93.018
-1.124,-0.236,-0.019,20.081,-54.626,79.285
-1.103,-0.234,-0.016,0.916,-47.852,68.420
-1.126,-0.110,-0.007,-11.658,-43.823,60.120
-1.040,-0.308,0.012,-33.325,-40.527,49.561
-1.045,-0.196,-0.021,-49.988,-42.786,37.292
-1.071,-0.132,0.003,-60.486,-36.438,27.954

-1.081,-0.179,-0.044,-44.617,-47.729,45.532
-1.076,-0.159,-0.029,-59.326,-44.922,35.950
-1.074,-0.123,-0.021,-72.937,-42.053,27.039
-1.071,-0.081,-0.010,-84.351,-38.208,18.799
-1.062,-0.029,-0.004,-94.788,-34.851,10.986
-1.053,0.024,0.009,-102.844,-31.555,4.822
-1.042,0.079,0.025,-108.398,-28.015,-1.221
-1.040,0.134,0.038,-111.084,-24.170,-6.287
-1.033,0.188,0.057,-112.427,-19.836,-11.169
-1.026,0.245,0.066,-111.694,-15.930,-15.625
-1.016,0.282,0.079,-111.206,-11.597,-20.081
-1.009,0.340,0.079,-107.788,-8.301,-24.048
-1.003,0.376,0.082,-102.234,-5.005,-26.794
-1.000,0.401,0.091,-94.849,-1.465,-29.663
-0.986,0.405,0.089,-85.205,1.709,-32.654
-0.995,0.409,0.091,-75.195,5.554,-37.231
-0.995,0.405,0.089,-65.918,8.972,-42.542
-1.004,0.358,0.082,-56.030,10.742,-46.875
-1.010,0.376,0.079,-44.067,13.184,-50.110
-1.030,0.334,0.058,-32.593,14.465,-52.734
-1.058,0.285,0.052,-21.545,15.747,-55.237
-1.087,0.247,0.044,-10.742,17.395,-58.594
-1.115,0.206,0.043,-4.944,19.287,-63.293
-1.149,0.181,0.051,-3.479,21.179,-69.885
-1.190,0.160,0.074,-6.470,23.560,-78.003
-1.231,0.150,0.108,-12.817,25.940,-88.318
-1.272,0.127,0.100,-23.621,29.602,-99.487
-1.262,0.163,0.048,-35.706,33.936,-112.305
-1.267,0.111,-0.009,-47.974,35.400,-124.878
-1.284,0.068,-0.033,-57.190,37.109,-138.245
-1.309,0.042,-0.107,-62.134,36.133,-151.672
-1.345,0.013,-0.115,-66.895,36.499,-167.297
-1.388,-0.018,-0.112,-73.181,35.034,-183.105
-1.449,0.001,-0.120,-79.407,34.363,-200.500
-1.501,0.042,-0.125,-85.083,33.997,-218.018
-1.571,0.068,-0.131,-95.215,32.166,-236.389
-1.624,0.085,-0.132,-105.103,31.982,-255.066
-1.686,0.160,-0.190,-104.309,30.579,-273.254
-1.740,0.235,-0.219,-103.271,30.457,-286.804
-1.818,-0.123,-0.682,-105.225,28.198,-295.471
-1.844,0.170,0.022,-116.211,17.273,-296.814
-1.701,0.515,-0.317,-80.139,21.545,-304.871
-1.748,0.536,-0.187,-54.504,15.625,-315.002
-1.798,0.574,-0.198,-33.020,6.714,-310.242
-1.827,0.453,-0.313,-20.203,8.728,-295.776
-1.823,0.285,-0.178,-35.583,12.939,-281.860
-1.723,0.159,-0.131,-30.334,21.729,-269.348
-1.641,0.071,-0.050,-8.545,28.809,-266.174
-1.513,0.054,-0.032,19.165,31.433,-264.526
-1.402,0.051,0.017,35.095,27.527,-256.836
-1.294,0.006,0.021,41.504,22.766,-246.826
-1.204,-0.020,0.049,44.983,19.836,-236.328
-1.124,-0.030,0.046,46.631,17.822,-226.318
-1.033,-0.020,0.041,49.194,17.212,-216.125
-0.945,-0.019,0.046,50.598,16.968,-206.543
-0.873,-0.018,0.042,50.476,16.846,-195.740
-0.789,-0.020,0.016,49.377,16.907,-182.312
-0.705,-0.025,-0.005,47.302,15.259,-169.006
-0.623,-0.022,-0.024,43.030,12.390,-155.640
-0.555,-0.027,-0.049,39.368,8.972,-142.395
-0.503,-0.018,-0.063,39.001,4.456,-131.042
-0.456,-0.012,-0.068,33.936,1.221,-115.479
-0.433,-0.006,-0.056,32.288,-1.343,-99.670
-0.431,-0.000,-0.043,31.555,-2.808,-83.435
-0.429,0.009,-0.059,30.212,-3.540,-66.772
-0.419,-0.005,-0.021,22.400,-5.615,-50.354
-0.418,-0.012,-0.019,24.048,-6.226,-34.790
-0.407,-0.008,-0.018,28.809,-6.531,-20.142
-0.398,-0.009,-0.011,33.020,-7.080,-5.920
-0.392,-0.011,-0.012,36.316,-7.812,7.446
-0.391,-0.025,-0.010,35.461,-9.155,20.813
-0.401,-0.036,-0.007,31.189,-11.047,33.569
-0.427,-0.033,-0.008,26.306,-12.939,46.448
-0.451,-0.041,-0.001,19.836,-15.015,59.631
-0.484,-0.023,0.002,13.123,-16.418,73.120
-0.521,-0.002,-0.006,6.531,-18.311,85.815
-0.552,0.006,-0.020,-1.526,-18.921,97.839
-0.582,0.016,-0.021,-13.794,-20.752,110.168
-0.619,0.040,-0.040,-23.499,-22.888,122.559
-0.651,0.043,-0.053,-32.043,-25.574,134.583
-0.694,0.048,-0.066,-39.551,-27.832,147.217
-0.746,0.076,-0.086,-41.565,-29.114,159.546
-0.805,0.102,-0.103,-42.786,-30.212,170.959
-0.857,0.099,-0.107,-43.945,-31.433,182.068
-0.928,0.127,-0.123,-42.053,-32.959,194.153
-1.001,0.152,-0.126,-39.429,-34.546,205.872
-1.059,0.183,-0.147,-35.461,-36.804,216.919
-1.166,0.183,-0.151,-31.433,-40.100,228.088
-1.278,0.199,-0.200,-21.973,-41.870,239.563
-1.349,0.215,-0.108,-15.930,-43.640,250.854
-1.445,0.251,-0.148,-0.183,-43.945,261.658
-1.514,0.253,-0.142,15.076,-45.776,271.912
-1.669,0.358,-0.159,24.536,-48.401,278.931
-1.641,0.362,-0.138,23.621,-50.598,282.593
-1.727,0.298,-0.081,57.129,-53.894,292.236
-1.618,0.123,-0.042,61.523,-58.533,302.246
-1.692,0.197,-0.119,94.666,-68.787,310.547
-1.787,0.240,-0.033,97.107,-67.139,306.885
-1.797,0.227,-0.028,113.281,-67.993,303.101
-1.769,0.186,-0.023,130.676,-71.350,299.744
-1.745,0.176,-0.001,144.226,-72.815,294.556
-1.710,0.203,-0.015,160.278,-73.669,289.001
-1.650,0.160,0.006,163.452,-71.411,281.799
-1.574,0.100,0.010,172.119,-71.716,271.362
-1.529,0.067,0.078,185.608,-72.571,257.629
-1.439,0.042,-0.017,181.519,-71.899,238.342
-1.427,0.104,-0.010,189.514,-73.853,215.027
-1.363,0.073,-0.007,182.861,-68.298,193.359
-1.266,-0.013,-0.013,173.889,-66.711,177.917
-1.194,-0.031,-0.058,158.936,-66.223,164.246
-1.172,-0.091,-0.053,140.991,-64.209,148.804
-1.144,-0.153,-0.053,122.131,-62.866,131.531
-1.129,-0.181,-0.041,101.990,-59.265,115.234
-1.103,-0.196,-0.033,80.200,-54.077,100.769
-1.079,-0.224,-0.024,57.068,-49.316,87.830
-1.094,-0.126,-0.029,38.330,-43.884,75.134
-1.052,-0.312,0.005,17.456,-37.231,65.308
-1.018,-0.255,-0.033,-4.761,-38.635,51.819
-1.020,-0.197,-0.029,-18.982,-33.569,39.612

-1.065,-0.260,0.008,10.132,-35.706,17.151
-1.056,-0.262,0.025,-8.545,-32.837,12.390
-1.048,-0.253,0.053,-28.809,-29.907,7.202
-1.044,-0.229,0.071,-48.584,-27.344,2.014
-1.042,-0.207,0.094,-66.772,-24.536,-2.563
-1.040,-0.169,0.116,-82.886,-21.912,-6.714
-1.036,-0.120,0.130,-96.619,-19.165,-10.742
-1.031,-0.064,0.141,-107.056,-15.991,-15.015
-1.031,-0.008,0.141,-113.586,-12.756,-18.311
-1.024,0.041,0.141,-116.699,-9.216,-21.790
-1.021,0.083,0.139,-117.676,-5.188,-24.170
-1.020,0.114,0.134,-117.981,-1.160,-25.940
-1.016,0.141,0.133,-117.188,2.869,-27.039
-1.014,0.148,0.122,-115.295,5.981,-26.917
-1.007,0.137,0.108,-112.854,9.033,-26.611
-1.021,0.143,0.094,-110.596,13.489,-28.809
-1.020,0.147,0.088,-109.131,17.456,-31.372
-1.017,0.154,0.059,-106.140,18.372,-32.776
-1.025,0.161,0.058,-101.501,19.531,-32.715
-1.032,0.166,0.039,-94.238,20.996,-33.020
-1.047,0.150,0.039,-89.417,22.888,-35.034
-1.069,0.145,0.048,-85.876,25.757,-38.513
-1.096,0.162,0.058,-83.862,27.466,-42.236
-1.136,0.149,0.073,-86.182,28.992,-47.058
-1.183,0.134,0.094,-91.797,31.067,-55.481
-1.212,0.077,0.057,-104.736,34.607,-65.125
-1.214,0.035,0.011,-118.591,39.795,-78.003
-1.219,0.010,-0.047,-128.906,42.114,-90.393
-1.215,-0.033,-0.080,-136.597,43.457,-104.309
-1.220,-0.033,-0.084,-143.250,46.326,-122.437
-1.246,-0.005,-0.084,-149.963,48.157,-140.137
-1.301,0.050,-0.069,-156.860,49.622,-158.936
-1.371,0.104,-0.070,-165.405,50.354,-179.199
-1.429,0.147,-0.089,-175.964,50.537,-200.684
-1.474,0.173,-0.143,-183.960,49.194,-221.252
-1.535,0.143,-0.221,-189.087,46.509,-240.479
-1.593,0.070,-0.167,-196.716,40.894,-255.493
-1.580,0.213,-0.234,-188.171,38.025,-268.921
-1.598,0.301,-0.259,-171.875,37.048,-291.199
-1.631,0.360,-0.293,-153.625,35.461,-309.143
-1.680,0.477,-0.252,-152.222,31.738,-319.092
-1.723,0.423,-0.356,-143.311,30.396,-323.547
-1.739,0.565,-0.247,-124.084,30.640,-322.510
-1.819,0.753,-0.120,-92.224,35.522,-317.505
-1.633,0.520,-0.322,-81.909,38.696,-307.617
-1.546,0.385,-0.158,-76.660,36.499,-295.288
-1.417,0.338,-0.104,-63.416,32.166,-279.663
-1.316,0.310,-0.009,-41.687,29.724,-266.968
-1.243,0.255,0.053,-15.625,28.992,-256.042
-1.174,0.225,0.076,10.437,26.978,-245.728
-1.111,0.174,0.099,24.841,25.635,-236.328
-1.030,0.133,0.135,28.564,25.330,-227.905
-0.950,0.106,0.126,31.311,25.696,-219.055
-0.874,0.097,0.109,32.593,25.208,-209.229
-0.803,0.090,0.098,32.532,23.499,-197.693
-0.719,0.076,0.066,31.128,21.484,-183.716
-0.664,0.078,0.031,30.884,18.188,-168.213
-0.607,0.064,-0.001,31.128,14.465,-152.588
-0.555,0.043,-0.031,31.616,10.803,-137.756
-0.506,0.017,-0.037,31.738,8.240,-123.474
-0.474,-0.003,-0.038,30.518,6.287,-109.253
-0.444,-0.025,-0.028,28.076,4.272,-95.093
-0.421,-0.045,-0.023,26.306,2.258,-80.200
-0.411,-0.049,-0.023,26.367,0.671,-65.125
-0.413,-0.040,-0.016,26.917,-0.977,-50.171
-0.419,-0.037,-0.009,28.198,-2.380,-35.828
-0.420,-0.029,-0.004,29.785,-3.418,-21.606
-0.426,-0.012,-0.003,31.921,-5.066,-7.935
-0.428,-0.001,-0.001,33.752,-6.409,4.578
-0.426,-0.001,0.001,35.034,-8.057,17.090
-0.422,0.014,-0.010,35.278,-10.559,29.358
-0.420,0.011,-0.006,35.095,-13.306,42.358
-0.430,0.038,-0.007,35.095,-16.052,56.274
-0.435,0.030,-0.004,34.851,-19.470,69.824
-0.454,0.059,-0.015,36.865,-22.827,84.351
-0.490,0.051,-0.000,37.903,-26.917,98.328
-0.497,0.093,-0.026,39.978,-31.372,112.488
-0.549,0.092,-0.009,42.969,-35.339,126.648
-0.586,0.108,-0.002,46.448,-39.551,141.296
-0.659,0.138,-0.036,55.237,-44.678,154.846
-0.715,0.156,-0.055,59.631,-45.532,168.152
-0.777,0.173,-0.060,59.021,-52.063,183.044
-0.840,0.255,-0.092,60.120,-59.998,196.594
-1.026,0.264,-0.030,57.068,-68.298,201.782
-0.924,0.078,-0.107,47.180,-75.439,209.717
-0.997,0.095,-0.022,67.139,-84.167,231.567
-1.151,0.233,-0.091,90.942,-88.074,245.483
-1.260,0.263,-0.094,102.661,-95.032,257.751
-1.363,0.247,-0.071,110.413,-100.464,269.226
-1.447,0.224,-0.063,125.000,-104.004,279.297
-1.500,0.113,0.022,138.062,-109.131,287.598
-1.585,0.261,-0.016,159.424,-113.892,296.021
-1.790,0.417,0.069,190.796,-118.225,294.495
-1.791,0.379,0.089,207.275,-118.591,286.133
-1.750,0.382,0.088,226.868,-122.559,280.823
-1.774,0.592,-0.064,245.117,-126.343,271.973
-1.645,0.045,0.076,255.493,-127.930,259.644
-1.468,0.018,0.041,251.587,-128.601,250.854
-1.523,0.117,-0.120,249.756,-133.118,226.868
-1.502,-0.027,-0.138,231.995,-128.479,203.796
-1.435,-0.078,-0.164,213.257,-125.854,187.256
-1.393,-0.129,-0.185,188.660,-125.244,171.997
-1.373,-0.198,-0.165,161.926,-123.596,158.264
-1.372,-0.235,-0.155,137.756,-120.911,144.714
-1.337,-0.270,-0.134,115.112,-117.249,130.066
-1.300,-0.289,-0.112,95.398,-111.572,114.685
-1.282,-0.288,-0.087,77.942,-106.262,100.586
-1.277,-0.277,-0.063,60.486,-101.379,88.196
-1.263,-0.262,-0.029,43.396,-95.886,77.576
-1.245,-0.249,-0.010,26.306,-90.576,67.444
-1.221,-0.227,0.021,10.071,-84.473,57.068
-1.203,-0.194,0.048,-6.165,-78.796,49.316
-1.176,-0.163,0.074,-22.156,-73.914,43.762
-1.169,-0.148,0.101,-36.743,-68.054,36.499
-1.160,-0.101,0.125,-46.936,-60.730,25.818
-1.141,-0.042,0.144,-56.641,-53.406,16.907
-1.123,0.033,0.166,-63.599,-46.631,12.085
-1.101,0.080,0.190,-68.237,-40.283,9.399
-1.081,0.121,0.211,-71.655,-33.508,4.639

-1.095,-0.124,-0.039,59.692,-45.654,71.350
-1.081,-0.123,-0.034,49.438,-43.518,65.186
-1.073,-0.117,-0.029,39.612,-40.710,60.242
-1.073,-0.116,-0.018,29.541,-37.903,53.894
-1.070,-0.106,0.004,19.592,-35.400,46.753
-1.070,-0.083,0.009,11.597,-33.020,41.077
-1.064,-0.066,0.025,4.517,-29.907,36.194
-1.059,-0.048,0.040,-2.686,-26.855,30.762
-1.052,-0.034,0.059,-10.254,-23.254,24.780
-1.043,-0.012,0.068,-16.357,-19.897,18.799
-1.031,0.008,0.082,-21.240,-15.808,13.733
-1.017,0.027,0.086,-25.574,-12.634,8.972
-1.008,0.049,0.087,-28.564,-9.399,4.578
-0.994,0.053,0.092,-31.372,-6.409,0.305
-0.984,0.070,0.090,-32.715,-3.967,-4.089
-0.980,0.076,0.089,-33.203,-1.160,-7.751
-0.976,0.079,0.090,-33.081,1.770,-12.146
-0.972,0.075,0.086,-32.593,3.784,-15.869
-0.993,0.078,0.084,-31.738,6.775,-20.569
-1.000,0.072,0.081,-32.410,11.108,-26.489
-0.998,0.080,0.078,-33.142,14.221,-31.311
-1.000,0.083,0.071,-32.898,15.747,-34.119
-1.004,0.083,0.066,-31.616,17.761,-35.522
-1.009,0.091,0.058,-30.090,19.043,-36.682
-1.011,0.082,0.041,-29.053,20.935,-38.879
-1.011,0.065,0.027,-29.846,22.461,-41.687
-1.015,0.058,0.029,-33.691,22.766,-44.312
-1.034,0.016,0.034,-41.016,23.315,-47.607
-1.051,0.035,0.044,-50.415,24.475,-51.575
-1.080,0.081,0.065,-59.143,25.146,-56.885
-1.140,0.050,0.086,-68.848,27.039,-64.209
-1.188,0.057,0.097,-77.454,29.663,-71.533
-1.201,0.131,0.047,-85.571,32.288,-81.482
-1.245,0.020,-0.001,-97.900,34.973,-95.947
-1.279,0.132,-0.025,-108.276,38.818,-112.732
-1.339,0.229,-0.059,-128.052,43.396,-135.803
-1.398,0.269,-0.118,-148.010,47.119,-165.039
-1.433,0.343,-0.185,-170.837,51.208,-195.618
-1.471,0.433,-0.218,-187.561,53.345,-227.356
-1.496,0.495,-0.275,-200.317,53.406,-259.949
-1.557,0.518,-0.260,-207.458,55.176,-292.664
-1.637,0.590,-0.287,-208.679,55.420,-321.106
-1.736,0.656,-0.266,-210.388,54.810,-345.398
-1.882,0.618,-0.304,-210.876,50.354,-362.549
-1.901,0.807,-0.218,-195.740,48.035,-370.300
-1.874,0.873,-0.210,-168.152,46.692,-371.826
-1.934,0.779,-0.065,-145.264,41.260,-367.249
-1.855,0.626,-0.092,-124.329,45.227,-354.309
-1.883,0.598,0.140,-107.300,50.293,-336.975
-1.570,0.392,0.015,-78.003,45.715,-312.500
-1.383,0.297,0.122,-58.716,42.114,-300.781
-1.245,0.312,0.063,-40.833,34.851,-292.053
-1.176,0.326,0.036,-23.437,19.958,-287.048
-1.174,0.385,0.023,-10.803,5.554,-282.410
-1.156,0.420,0.037,3.235,-4.639,-275.146
-1.153,0.451,0.025,17.212,-11.597,-264.221
-1.094,0.396,0.058,21.729,-12.878,-246.338
-1.020,0.315,0.101,27.954,-12.878,-231.934
-0.985,0.265,0.091,34.973,-13.184,-219.055
-0.984,0.251,0.072,46.204,-12.390,-204.956
-0.918,0.158,0.059,54.871,-9.460,-191.345
-0.854,0.100,0.042,59.387,-7.751,-179.932
-0.820,0.104,0.031,59.631,-7.812,-169.739
-0.792,0.098,0.037,56.213,-8.850,-158.936
-0.784,0.104,0.023,54.077,-9.705,-148.254
-0.802,0.133,-0.003,47.058,-9.827,-138.245
-0.798,0.128,0.015,32.715,-10.254,-126.953
-0.768,0.141,0.002,32.776,-9.094,-115.479
-0.727,0.133,0.000,33.936,-7.996,-105.347
-0.680,0.116,-0.000,34.912,-7.080,-95.215
-0.634,0.108,0.001,35.156,-6.531,-83.923
-0.590,0.102,0.000,34.485,-6.042,-72.266
-0.552,0.096,0.004,33.081,-5.310,-60.608
-0.519,0.098,0.009,30.945,-5.127,-49.133
-0.496,0.097,0.014,28.198,-4.578,-37.842
-0.485,0.107,0.027,25.330,-4.272,-26.733
-0.484,0.120,0.036,22.827,-4.028,-15.503
-0.485,0.127,0.043,20.630,-4.089,-4.517
-0.482,0.133,0.052,18.494,-4.028,6.897
-0.480,0.135,0.057,16.174,-3.845,18.555
-0.482,0.127,0.052,12.207,-4.089,29.724
-0.476,0.126,0.036,8.301,-3.723,41.077
-0.474,0.144,0.019,4.272,-4.578,52.490
-0.479,0.165,-0.000,1.953,-5.188,63.354
-0.486,0.171,-0.016,0.549,-6.042,74.036
-0.500,0.185,-0.028,0.366,-7.202,85.083
-0.513,0.169,-0.020,0.488,-8.545,95.642
-0.533,0.168,-0.020,0.732,-10.010,106.506
-0.568,0.185,-0.017,0.549,-11.475,117.859
-0.607,0.189,-0.011,0.732,-13.123,128.906
-0.656,0.216,-0.022,2.197,-15.137,140.442
-0.694,0.197,-0.020,2.686,-17.395,151.367
-0.744,0.174,-0.051,1.953,-20.142,162.537
-0.790,0.182,-0.069,0.244,-22.827,174.500
-0.818,0.155,-0.055,-1.282,-25.635,186.768
-0.866,0.157,-0.100,-2.197,-30.457,196.838
-0.934,0.192,-0.097,-5.493,-32.471,207.397
-0.998,0.190,-0.140,-11.597,-35.583,218.567
-1.067,0.179,-0.157,-13.916,-40.100,229.065
-1.145,0.167,-0.173,-14.160,-45.349,238.708
-1.230,0.186,-0.175,-9.705,-49.805,247.986
-1.319,0.209,-0.182,-5.737,-52.979,257.202
-1.416,0.223,-0.169,-1.160,-56.519,266.235
-1.512,0.231,-0.176,6.714,-59.265,274.597
-1.594,0.236,-0.176,15.808,-61.890,282.776
-1.686,0.327,-0.217,24.597,-64.636,290.161
-1.773,0.299,-0.193,30.701,-67.932,292.908
-1.787,0.387,-0.292,32.898,-70.313,294.250
-1.813,0.172,-0.131,49.561,-77.332,293.884
-1.698,0.173,-0.275,52.979,-77.698,297.424
-1.779,0.173,-0.103,38.940,-85.754,307.983
-1.868,0.198,-0.148,32.410,-78.186,317.383
-1.904,0.194,-0.104,46.326,-74.280,315.857
-1.864,0.169,-0.089,54.810,-70.923,306.152
-1.798,0.104,-0.062,65.491,-68.298,295.654
-1.764,0.280,-0.178,81.726,-65.918,288.208
-1.734,-0.105,0.071,96.313,-64.880,272.400
-1.565,-0.094,-0.117,91.858,-59.143,266.052
-1.643,0.280,-0.108,131.165,-67.322,257.202

-0.779,0.740,-0.202,78.430,-123.413,-80.200
-0.833,0.793,-0.108,70.007,-128.784,-80.444
-0.865,0.796,-0.018,61.218,-132.080,-81.787
-0.863,0.791,0.035,57.007,-134.644,-82.764
-0.820,0.759,0.036,55.786,-136.841,-82.458
-0.764,0.705,-0.013,55.237,-138.672,-81.787
-0.705,0.666,-0.078,53.711,-140.991,-80.444
-0.660,0.659,-0.152,51.392,-144.287,-78.735
-0.628,0.672,-0.205,46.875,-148.376,-77.026
-0.615,0.698,-0.259,41.016,-153.015,-75.378
-0.617,0.733,-0.293,34.790,-158.447,-73.547
-0.629,0.754,-0.300,29.907,-164.429,-71.472
-0.640,0.787,-0.292,28.992,-170.532,-68.970
-0.641,0.815,-0.269,33.142,-176.270,-66.162
-0.646,0.804,-0.239,38.818,-181.702,-63.721
-0.656,0.806,-0.224,45.898,-187.134,-60.669
-0.674,0.822,-0.224,51.270,-192.993,-57.739
-0.693,0.826,-0.240,52.856,-198.669,-55.542
-0.707,0.817,-0.265,53.162,-204.102,-53.772
-0.720,0.812,-0.289,55.725,-209.900,-52.063
-0.734,0.812,-0.318,58.044,-216.187,-51.147
-0.752,0.800,-0.332,59.631,-222.778,-50.537
-0.766,0.780,-0.336,62.195,-229.492,-49.316
-0.781,0.781,-0.340,66.162,-236.023,-47.668
-0.804,0.786,-0.344,71.167,-241.943,-45.837
-0.827,0.783,-0.319,76.721,-247.131,-43.762
-0.855,0.790,-0.286,84.351,-252.075,-41.199
-0.888,0.802,-0.246,93.323,-256.775,-38.574
-0.936,0.812,-0.190,101.440,-260.681,-36.377
-1.000,0.803,-0.083,107.727,-263.428,-34.912
-1.062,0.746,0.034,112.122,-265.015,-33.997
-1.099,0.688,0.100,115.295,-263.855,-33.447
-1.115,0.663,0.161,118.958,-261.963,-33.081
-1.097,0.629,0.140,122.864,-259.033,-33.142
-1.063,0.629,0.068,126.282,-254.517,-33.630
-1.051,0.642,0.014,129.333,-249.390,-34.119
-1.060,0.641,-0.067,129.761,-243.958,-33.630
-1.148,0.652,-0.118,135.986,-238.403,-31.372
-1.223,0.603,-0.028,144.043,-230.347,-30.762
-1.448,0.797,0.068,150.879,-215.210,-25.208
-1.521,0.552,0.331,150.574,-185.364,-19.226
-1.500,0.257,0.700,142.395,-164.490,-11.475
-1.432,0.225,0.726,163.147,-153.625,-13.550
-1.396,0.153,0.762,162.415,-145.081,-19.592
-1.209,0.228,0.637,159.424,-142.944,-25.574
-1.148,0.261,0.594,148.865,-138.000,-29.846
-1.106,0.323,0.527,138.672,-131.409,-33.142
-1.050,0.341,0.488,136.047,-126.038,-31.311
-0.996,0.333,0.408,135.498,-120.911,-22.888
-0.934,0.307,0.399,126.526,-115.417,-13.245
-0.878,0.344,0.271,126.648,-109.375,-4.272
-0.886,0.435,0.227,127.747,-105.225,5.737
-0.901,0.493,0.217,119.751,-100.403,13.245
-0.884,0.524,0.233,111.694,-95.703,19.897
-0.849,0.522,0.256,103.821,-91.431,25.940
-0.806,0.515,0.262,97.168,-87.524,31.006
-0.777,0.519,0.252,88.074,-83.496,34.729
-0.757,0.532,0.225,76.660,-78.064,37.537
-0.735,0.541,0.180,68.237,-71.655,39.978
-0.711,0.565,0.129,65.857,-64.453,41.321
-0.693,0.613,0.096,62.012,-56.885,41.321
-0.682,0.671,0.108,49.377,-50.537,39.063
-0.675,0.733,0.109,35.583,-44.434,35.095
-0.685,0.806,0.119,21.912,-37.354,30.212
-0.688,0.816,0.146,11.230,-29.724,24.292
-0.682,0.860,0.145,6.287,-21.606,19.531
-0.660,0.875,0.152,0.732,-13.428,15.015
-0.648,0.882,0.158,-4.578,-5.066,11.475
-0.651,0.873,0.181,-8.728,2.075,8.545
-0.643,0.853,0.195,-8.362,9.033,6.958
-0.633,0.844,0.239,-6.897,15.015,5.432
-0.631,0.809,0.274,-4.822,20.081,3.845
-0.627,0.750,0.276,-1.526,24.963,2.625
-0.626,0.702,0.230,0.061,28.931,1.404
-0.622,0.680,0.177,-0.122,31.799,0.671
-0.623,0.671,0.138,-3.906,33.386,-0.549
-0.635,0.674,0.109,-8.789,34.485,-1.831
-0.667,0.679,0.126,-15.503,36.682,-2.380
-0.723,0.685,0.175,-21.790,40.466,-3.418
-0.767,0.677,0.177,-27.039,45.959,-4.639
-0.804,0.650,0.229,-33.630,50.842,-5.493
-0.822,0.615,0.247,-34.546,56.885,-5.127
-0.852,0.585,0.265,-35.767,63.660,-4.456
-0.865,0.560,0.278,-37.842,70.557,-3.296
-0.863,0.554,0.263,-40.649,77.515,-1.770
-0.859,0.557,0.233,-45.593,84.167,0.305
-0.847,0.553,0.215,-50.659,90.027,2.991
-0.833,0.552,0.211,-56.091,95.276,6.165
-0.831,0.562,0.210,-59.937,100.342,9.583
-0.829,0.558,0.218,-62.927,105.591,13.000
-0.830,0.565,0.236,-64.331,110.596,16.357
-0.831,0.566,0.264,-64.270,115.845,19.714
-0.829,0.581,0.252,-62.622,120.728,23.743
-0.826,0.590,0.259,-61.035,124.268,28.076
-0.815,0.591,0.233,-58.838,127.869,32.288
-0.815,0.582,0.195,-59.570,131.714,36.743
-0.808,0.562,0.184,-61.646,135.742,41.016
-0.804,0.552,0.192,-64.514,139.771,44.739
-0.797,0.557,0.191,-68.359,143.005,47.363
-0.796,0.564,0.195,-76.477,145.813,49.194
-0.792,0.583,0.176,-82.031,148.560,50.354
-0.776,0.615,0.151,-86.975,150.513,51.208
-0.754,0.655,0.137,-90.759,151.794,51.880
-0.745,0.694,0.172,-92.957,152.405,52.429
-0.755,0.731,0.236,-92.224,153.381,53.406
-0.776,0.768,0.303,-86.548,154.907,54.993
-0.786,0.787,0.347,-77.087,157.288,57.007
-0.793,0.783,0.379,-66.711,159.424,59.448
-0.788,0.755,0.375,-58.228,161.560,61.951
-0.777,0.733,0.344,-51.208,163.330,64.636
-0.759,0.715,0.292,-48.584,163.696,67.200
-0.733,0.707,0.244,-47.791,162.842,69.641
-0.716,0.696,0.236,-49.255,161.499,71.411
-0.705,0.684,0.246,-50.842,161.133,72.937
-0.690,0.679,0.244,-51.880,161.011,74.951
-0.677,0.687,0.230,-53.528,160.706,76.965
-0.677,0.716,0.244,-55.847,159.790,78.552
-0.686,0.771,0.254,-59.143,158.569,79.590
-0.708,0.819,0.287,-62.439,157.227,79.529

-1.063,0.629,0.068,126.282,-254.517,-33.630
-1.051,0.642,0.014,129.333,-249.390,-34.119
-1.060,0.641,-0.067,129.761,-243.958,-33.630
-1.148,0.652,-0.118,135.986,-238.403,-31.372
-1.223,0.603,-0.028,144.043,-230.347,-30.762
-1.448,0.797,0.068,150.879,-215.210,-25.208
-0.727,0.574,0.355,-10.986,174.744,51.208
-0.691,0.547,0.330,-9.155,178.223,59.021
-0.663,0.536,0.322,-8.850,180.237,66.467
-0.639,0.543,0.301,-10.010,181.885,73.120
-0.624,0.569,0.273,-12.268,182.739,78.735
-0.615,0.600,0.251,-15.442,182.800,83.557
-0.610,0.601,0.242,-19.165,182.373,87.830
-0.599,0.581,0.237,-21.851,181.580,92.407
-0.583,0.570,0.208,-22.827,181.274,97.656
-0.570,0.586,0.176,-24.109,180.786,103.210
-0.563,0.595,0.168,-26.123,179.565,108.215
-0.559,0.584,0.153,-27.710,178.467,113.342
-0.548,0.610,0.083,-27.893,177.673,118.591
-0.546,0.678,0.059,-30.396,175.354,123.047
-0.538,0.708,0.023,-32.288,173.035,126.770
-0.522,0.687,-0.015,-32.227,169.495,130.371
-0.493,0.650,-0.045,-30.396,164.551,135.193
-0.469,0.622,-0.031,-28.687,159.729,140.503
-0.452,0.600,-0.009,-28.809,156.128,146.362
-0.446,0.571,-0.005,-34.241,154.541,152.100
-0.451,0.554,-0.001,-43.579,152.527,157.410
-0.496,0.626,0.080,-54.810,149.841,161.804
-0.572,0.729,0.107,-71.045,149.475,164.124
-0.655,0.823,0.050,-84.045,148.743,165.222
-0.740,0.864,0.023,-96.375,143.311,165.527
-0.716,0.704,0.040,-104.431,136.108,165.161
-0.949,0.768,-0.027,-93.079,124.939,170.532
-0.920,0.760,-0.088,-93.994,117.310,169.373
-0.937,0.720,-0.118,-93.811,112.305,167.114
-0.959,0.750,-0.133,-86.853,104.431,164.551
-0.975,0.792,-0.167,-86.426,97.717,159.302
-0.983,0.868,-0.217,-95.764,91.431,151.062
-1.006,0.963,-0.223,-106.873,83.618,141.113
-1.043,1.042,-0.180,-112.549,74.646,130.493
-1.063,1.063,-0.127,-109.253,67.200,120.117
-1.054,1.027,-0.092,-99.243,60.913,109.863
-1.012,0.980,-0.068,-85.205,55.115,99.731
-0.949,0.939,-0.045,-70.251,50.049,89.539
-0.878,0.887,-0.024,-58.350,45.410,79.041
-0.816,0.857,-0.004,-49.500,40.894,68.420
-0.763,0.838,0.016,-43.335,36.560,58.350
-0.717,0.832,0.026,-38.757,31.738,48.889
-0.680,0.856,0.027,-35.278,26.550,40.466
-0.663,0.903,0.012,-33.264,21.301,32.288
-0.659,0.948,-0.011,-32.837,16.174,23.315
-0.658,0.974,-0.042,-33.691,10.132,13.123
-0.656,0.956,-0.055,-34.241,2.563,2.014
-0.650,0.918,-0.071,-33.752,-5.127,-8.484
-0.645,0.880,-0.101,-31.189,-12.817,-17.883
-0.649,0.824,-0.078,-30.640,-21.545,-26.550
-0.654,0.798,-0.052,-28.320,-29.602,-33.936
-0.664,0.813,0.002,-23.743,-35.950,-39.429
-0.685,0.812,0.093,-19.897,-40.894,-44.250
-0.689,0.791,0.126,-16.174,-43.823,-48.462
-0.676,0.786,0.115,-9.277,-46.143,-50.720
-0.661,0.799,0.084,-0.183,-49.194,-51.941
-0.657,0.829,0.033,8.850,-52.490,-52.856
-0.657,0.846,-0.030,14.709,-56.274,-54.199
-0.662,0.848,-0.115,17.212,-60.181,-56.519
-0.662,0.846,-0.210,16.846,-65.430,-59.326
-0.665,0.848,-0.280,12.695,-72.083,-62.378
-0.677,0.852,-0.315,7.385,-79.651,-65.735
-0.703,0.863,-0.327,4.456,-87.280,-68.726
-0.731,0.862,-0.268,2.441,-94.971,-71.777
-0.753,0.845,-0.166,1.160,-101.868,-74.951
-0.770,0.808,-0.057,1.465,-107.361,-78.125
-0.766,0.760,-0.027,4.211,-112.061,-80.444
-0.736,0.720,-0.072,9.277,-117.126,-81.543
-0.706,0.711,-0.146,16.418,-122.864,-80.811
-0.678,0.729,-0.237,26.062,-129.150,-78.064
-0.662,0.749,-0.329,36.194,-136.841,-74.707
-0.659,0.768,-0.405,47.058,-145.386,-70.862
-0.677,0.780,-0.453,57.983,-154.541,-66.406
-0.695,0.802,-0.492,69.519,-163.086,-62.256
-0.727,0.830,-0.503,81.482,-171.509,-58.594
-0.767,0.828,-0.489,91.309,-179.871,-56.396
-0.796,0.830,-0.482,98.816,-186.890,-54.993
-0.812,0.827,-0.467,105.530,-194.214,-54.260
-0.805,0.822,-0.450,110.657,-200.562,-54.932
-0.798,0.802,-0.410,116.028,-206.482,-56.702
-0.777,0.778,-0.403,121.521,-211.609,-58.350
-0.766,0.766,-0.410,127.808,-217.102,-60.059
-0.772,0.767,-0.415,132.019,-223.145,-61.401
-0.794,0.747,-0.380,130.798,-229.675,-62.439
-0.834,0.702,-0.303,124.512,-236.938,-63.110
-0.891,0.688,-0.198,118.469,-241.577,-64.331
-0.958,0.683,-0.078,111.694,-243.835,-65.430
-1.008,0.655,-0.001,106.201,-243.530,-66.711
-1.031,0.616,0.042,102.295,-241.882,-67.810
-1.036,0.614,0.048,100.708,-239.075,-67.810
-1.048,0.629,0.068,97.961,-236.328,-67.566
-1.074,0.658,0.109,95.032,-233.337,-67.688
-1.124,0.691,0.194,93.689,-229.919,-67.200
-1.174,0.697,0.275,96.558,-225.281,-66.406
-1.202,0.678,0.331,103.027,-219.788,-65.063
-1.200,0.665,0.398,111.816,-213.928,-62.683
-1.240,0.624,0.453,117.676,-207.031,-60.913
-1.250,0.579,0.491,122.314,-197.510,-58.838
-1.243,0.535,0.513,123.840,-187.317,-57.495
-1.240,0.502,0.567,121.399,-175.964,-56.335
-1.227,0.449,0.597,116.394,-162.598,-55.176
-1.201,0.406,0.552,109.314,-149.963,-53.589
-1.182,0.380,0.509,102.295,-139.343,-52.368
-1.154,0.357,0.479,95.886,-129.761,-50.354
-1.120,0.328,0.428,89.600,-120.605,-47.180
-1.079,0.330,0.401,83.252,-113.281,-42.725
-1.043,0.343,0.382,76.660,-109.009,-38.208
-1.022,0.368,0.350,74.402,-102.783,-32.288
-1.012,0.397,0.347,69.092,-94.421,-28.503
-1.001,0.414,0.356,63.416,-86.426,-25.574
-0.987,0.407,0.386,56.763,-79.407,-21.606
-0.968,0.404,0.441,49.866,-70.923,-17.029
-0.943,0.417,0.457,43.213,-63.232,-12.695

0.398,0.651,0.646,1.343,-5.554,-3.540
0.403,0.646,0.638,3.235,-5.676,-4.211
0.408,0.633,0.628,4.028,-5.859,-5.005
0.414,0.620,0.614,4.822,-6.042,-5.676
0.417,0.604,0.601,5.310,-6.226,-6.348
0.416,0.606,0.595,5.371,-6.226,-7.141
0.410,0.614,0.599,4.761,-6.470,-7.996
0.407,0.605,0.599,3.601,-6.592,-8.667
0.407,0.595,0.600,2.991,-6.958,-8.667
0.400,0.599,0.617,2.869,-7.019,-8.362
0.392,0.600,0.641,2.991,-6.836,-8.301
0.384,0.601,0.647,3.845,-6.226,-8.057
0.379,0.609,0.650,4.822,-5.676,-7.568
0.379,0.612,0.646,6.226,-4.822,-7.019
0.383,0.617,0.641,7.690,-3.906,-6.287
0.395,0.603,0.620,8.911,-3.357,-5.676
0.408,0.591,0.601,9.521,-3.052,-5.188
0.409,0.586,0.607,8.606,-3.052,-4.700
0.398,0.591,0.630,6.714,-2.930,-4.761
0.387,0.594,0.654,4.883,-2.136,-4.883
0.376,0.585,0.687,3.357,-0.793,-5.005
0.367,0.559,0.727,2.686,0.854,-4.883
0.371,0.547,0.750,3.540,3.174,-4.517
0.383,0.543,0.760,5.127,5.859,-4.272
0.392,0.529,0.776,6.958,8.545,-3.723
0.399,0.495,0.805,9.277,11.230,-3.418
0.404,0.475,0.849,12.756,14.343,-3.174
0.425,0.443,0.880,18.066,18.372,-2.991
0.474,0.399,0.863,24.353,22.827,-2.686
0.535,0.368,0.832,30.640,26.672,-2.075
0.598,0.361,0.795,35.706,28.992,-1.526
0.657,0.361,0.767,38.635,29.907,-1.038
0.704,0.369,0.763,39.246,29.602,-0.793
0.743,0.365,0.787,39.063,28.503,-0.549
0.786,0.357,0.817,39.551,27.588,-0.244
0.827,0.362,0.839,42.236,27.466,1.160
0.857,0.369,0.871,45.227,26.733,2.502
0.886,0.366,0.890,50.354,25.940,3.052
0.915,0.360,0.927,58.044,25.269,3.174
0.927,0.351,0.982,66.650,25.024,2.869
0.947,0.348,1.018,76.172,26.001,2.625
0.967,0.341,1.047,84.839,26.917,3.296
0.992,0.310,1.066,93.506,28.015,4.272
1.021,0.268,1.038,105.408,31.250,6.653
1.049,0.177,1.010,115.601,33.325,10.925
1.090,0.048,0.956,123.962,34.607,16.174
1.114,-0.085,0.887,127.808,34.912,21.484
1.142,-0.177,0.803,130.920,34.790,27.466
1.155,-0.226,0.752,134.399,34.119,34.302
1.162,-0.224,0.694,141.296,31.738,41.016
1.153,-0.179,0.676,148.621,28.931,47.485
1.111,-0.160,0.649,151.306,24.963,54.871
1.073,-0.192,0.611,155.823,20.996,64.392
1.052,-0.237,0.541,162.476,16.663,76.111
1.014,-0.299,0.465,169.067,11.902,90.332
0.981,-0.350,0.373,171.265,5.005,105.164
0.922,-0.403,0.327,168.823,-3.601,119.507
0.871,-0.415,0.253,163.330,-14.221,133.179
0.812,-0.414,0.180,156.738,-27.100,144.958
0.729,-0.396,0.138,143.433,-44.617,154.663
0.632,-0.368,0.104,129.211,-64.819,164.246
0.513,-0.333,0.096,116.028,-84.656,173.950
0.374,-0.306,0.104,105.896,-103.577,184.326
0.239,-0.272,0.137,94.238,-120.300,194.824
0.082,-0.226,0.195,78.796,-135.193,204.407
-0.070,-0.146,0.298,62.012,-150.513,212.769
-0.284,-0.030,0.412,44.373,-165.833,220.520
-0.533,0.109,0.454,29.480,-179.749,227.051
-0.795,0.298,0.646,13.062,-191.040,231.567
-1.066,0.519,0.840,-4.211,-198.486,231.506
-1.286,0.509,0.818,-13.550,-204.224,224.976
-1.429,0.331,0.667,-17.151,-210.815,218.811
-1.513,0.223,0.524,-20.264,-212.463,213.684
-1.570,0.247,0.471,-23.987,-211.548,207.947
-1.609,0.352,0.459,-28.992,-207.275,198.975
-1.641,0.506,0.377,-43.152,-203.186,186.707
-1.751,0.639,0.747,-85.510,-189.331,172.729
-1.831,0.763,0.964,-95.947,-168.335,163.818
-1.894,0.867,1.185,-89.783,-150.635,158.386
-1.904,1.013,1.193,-58.167,-130.127,152.588
-1.798,1.116,1.079,-16.357,-101.990,146.606
-1.565,1.155,0.890,18.738,-69.336,133.667
-1.343,1.176,0.647,56.519,-37.476,111.633
-0.985,1.097,0.552,77.454,-8.789,84.656
-0.775,0.954,0.582,78.186,5.432,52.002
-0.616,0.789,0.680,82.275,9.155,19.775
-0.603,0.594,0.651,78.796,-0.122,-7.446
-0.673,0.466,0.750,49.561,2.197,-33.325
-0.721,0.396,0.768,26.184,8.179,-52.612
-0.756,0.362,0.771,9.033,11.536,-68.726
-0.788,0.397,0.811,-8.179,15.869,-84.290
-0.869,0.499,0.918,-20.447,22.583,-98.206
-0.909,0.544,0.886,-22.217,29.846,-108.948
-0.929,0.531,0.816,-18.433,35.461,-117.249
-0.927,0.518,0.736,-11.414,39.307,-122.986
-0.904,0.504,0.715,-6.714,42.725,-128.479
-0.865,0.476,0.714,-3.601,45.715,-133.484
-0.819,0.443,0.705,0.793,47.241,-136.902
-0.778,0.422,0.691,1.526,47.974,-138.733
-0.746,0.407,0.660,-2.136,47.913,-139.709
-0.701,0.409,0.599,-7.202,45.410,-140.503
-0.681,0.444,0.578,-20.386,40.833,-143.005
-0.701,0.502,0.560,-43.030,36.499,-147.583
-0.759,0.527,0.707,-69.885,32.166,-153.564
-0.795,0.547,0.843,-84.778,30.273,-157.898
-0.780,0.596,0.944,-87.158,32.104,-160.706
-0.731,0.603,0.971,-83.923,34.180,-163.269
-0.658,0.578,0.942,-76.233,35.950,-165.283
-0.560,0.525,0.841,-65.735,37.659,-166.016
-0.446,0.426,0.716,-64.270,37.964,-166.260
-0.333,0.347,0.617,-77.209,36.011,-165.588
-0.249,0.350,0.545,-98.206,30.151,-163.879
-0.165,0.417,0.374,-119.202,20.752,-162.048
-0.186,0.420,0.339,-145.508,8.484,-159.729
-0.168,0.459,0.309,-174.011,-3.662,-157.959
-0.165,0.461,0.435,-198.792,-13.367,-154.602
-0.127,0.436,0.561,-215.027,-17.761,-150.940
-0.021,0.416,0.642,-217.651,-17.700,-145.630
0.082,0.419,0.743,-214.111,-14.893,-140.259

0.474,0.399,0.863,24.353,22.827,-2.686
0.535,0.368,0.832,30.640,26.672,-2.075
0.598,0.361,0.795,35.706,28.992,-1.526
0.657,0.361,0.767,38.635,29.907,-1.038
0.704,0.369,0.763,39.246,29.602,-0.793
0.743,0.365,0.787,39.063,28.503,-0.549
0.786,0.357,0.817,39.551,27.588,-0.244
0.827,0.362,0.839,42.236,27.466,1.160
0.857,0.369,0.871,45.227,26.733,2.502
0.886,0.366,0.890,50.354,25.940,3.052
0.915,0.360,0.927,58.044,25.269,3.174
0.927,0.351,0.982,66.650,25.024,2.869
1.015,0.021,0.692,95.032,4.395,19.348
1.018,0.021,0.706,88.928,2.625,25.085
1.013,0.016,0.692,82.825,-0.793,31.494
1.014,-0.001,0.679,76.172,-3.723,38.208
1.005,-0.002,0.667,69.946,-6.226,43.762
0.985,0.039,0.624,72.815,-9.094,49.072
0.964,0.095,0.553,82.214,-12.024,55.176
0.935,0.171,0.503,94.299,-15.686,61.401
0.893,0.198,0.469,108.765,-19.897,67.078
0.843,0.202,0.428,125.793,-24.414,74.768
0.790,0.174,0.397,143.555,-30.518,86.060
0.753,0.122,0.349,160.034,-37.598,100.891
0.715,0.036,0.291,171.997,-45.593,117.310
0.674,-0.015,0.308,174.683,-56.458,134.155
0.605,-0.099,0.294,172.791,-67.383,150.879
0.524,-0.148,0.295,175.171,-77.576,165.222
0.438,-0.156,0.291,174.011,-88.806,178.223
0.337,-0.141,0.262,169.189,-101.746,190.369
0.214,-0.160,0.287,158.325,-115.723,201.660
0.084,-0.141,0.288,145.996,-130.310,213.257
-0.060,-0.118,0.280,133.118,-145.081,224.182
-0.220,-0.086,0.275,119.385,-161.621,234.070
-0.398,-0.057,0.256,99.487,-178.833,243.286
-0.603,-0.040,0.211,73.975,-196.167,251.160
-0.867,-0.048,0.178,43.945,-213.379,258.179
-1.193,-0.038,0.258,8.545,-229.980,262.878
-1.550,0.026,0.225,-16.846,-241.821,262.268
-1.969,0.175,0.405,-48.767,-250.793,253.784
-2.288,0.414,0.838,-77.881,-243.530,237.488
-2.509,0.784,1.073,-106.689,-218.689,209.595
-2.581,0.994,1.586,-139.343,-179.077,175.049
-2.254,1.125,1.189,-61.951,-156.982,162.170
-1.947,1.159,0.893,3.052,-137.451,147.827
-1.547,1.130,0.712,29.114,-101.196,123.535
-1.120,0.997,0.464,54.626,-62.927,99.121
-0.855,0.881,0.702,23.193,-15.442,68.848
-0.579,0.803,1.132,-8.057,16.846,47.668
-0.598,0.656,1.052,-5.676,0.427,32.227
-0.688,0.556,0.991,-9.277,-7.385,9.155
-0.748,0.479,1.008,-38.818,-1.099,-17.700
-0.748,0.447,0.943,-55.542,6.775,-43.091
-0.689,0.433,0.864,-67.383,15.198,-65.369
-0.609,0.439,0.808,-78.491,21.912,-82.458
-0.572,0.449,0.862,-93.994,27.710,-95.642
-0.584,0.458,0.917,-103.210,32.166,-106.445
-0.636,0.492,0.915,-104.675,35.156,-114.624
-0.702,0.528,0.908,-104.797,38.879,-121.155
-0.769,0.557,0.856,-100.769,43.030,-126.587
-0.828,0.597,0.828,-98.083,46.143,-131.592
-0.876,0.605,0.788,-99.426,48.340,-137.146
-0.885,0.579,0.701,-103.271,51.453,-142.273
-0.824,0.577,0.569,-109.436,54.382,-146.362
-0.683,0.602,0.510,-119.873,55.359,-149.475
-0.517,0.654,0.527,-131.287,55.786,-152.771
-0.383,0.728,0.569,-134.888,55.115,-154.785
-0.313,0.818,0.626,-132.568,52.124,-156.677
-0.291,0.868,0.681,-126.038,46.936,-158.325
-0.309,0.843,0.716,-116.455,39.978,-159.546
-0.326,0.756,0.718,-107.056,32.043,-161.560
-0.334,0.666,0.660,-94.849,25.452,-162.720
-0.323,0.604,0.568,-84.534,20.081,-164.062
-0.300,0.557,0.488,-81.238,14.954,-165.405
-0.267,0.519,0.437,-90.759,10.681,-165.771
-0.192,0.502,0.370,-107.422,6.592,-165.283
-0.094,0.514,0.342,-121.216,2.136,-163.574
0.028,0.520,0.327,-132.141,-2.869,-162.231
0.132,0.554,0.302,-136.963,-7.874,-161.194
0.191,0.615,0.296,-138.062,-12.878,-159.912
0.198,0.709,0.342,-133.850,-18.005,-156.860
0.156,0.774,0.422,-128.235,-21.790,-152.100
0.141,0.773,0.448,-121.948,-22.522,-143.494
0.138,0.739,0.450,-111.511,-20.325,-131.531
0.161,0.675,0.401,-104.492,-18.616,-119.507
0.207,0.606,0.327,-100.403,-19.104,-109.375
0.265,0.500,0.249,-103.638,-22.949,-101.929
0.384,0.381,0.166,-114.380,-26.550,-95.459
0.506,0.366,0.176,-130.310,-28.931,-90.515
0.580,0.461,0.318,-146.851,-29.663,-88.928
0.577,0.595,0.423,-153.381,-30.579,-89.539
0.553,0.703,0.548,-148.010,-28.992,-86.426
0.541,0.772,0.682,-136.108,-23.010,-79.590
0.544,0.793,0.771,-121.033,-16.663,-72.449
0.548,0.779,0.769,-97.229,-13.733,-66.101
0.566,0.723,0.697,-70.435,-12.451,-59.692
0.616,0.631,0.603,-52.490,-10.437,-52.368
0.692,0.561,0.535,-46.387,-6.958,-45.837
0.756,0.504,0.587,-47.913,-4.456,-41.138
0.799,0.498,0.723,-45.410,-3.662,-37.048
0.817,0.522,0.827,-41.138,-1.770,-31.616
0.824,0.567,0.984,-44.800,0.854,-26.428
0.823,0.665,1.096,-46.875,0.549,-23.071
0.805,0.716,1.181,-43.457,0.366,-22.339
0.839,0.748,1.206,-28.992,-0.183,-21.667
0.882,0.758,1.187,-7.324,-2.014,-19.775
0.906,0.770,1.136,15.625,-3.296,-17.700
0.911,0.778,1.105,34.363,-3.601,-15.015
0.897,0.767,1.066,47.729,-3.418,-12.512
0.872,0.750,1.091,57.129,-2.258,-9.705
0.836,0.765,1.125,63.293,1.404,-7.996
0.837,0.784,1.125,69.031,7.874,-5.737
0.821,0.780,1.057,72.510,12.634,-3.845
0.820,0.764,0.951,79.956,18.188,-2.991
0.830,0.749,0.836,83.313,26.062,-2.686
0.847,0.771,0.777,83.984,33.569,-3.967
0.843,0.777,0.743,80.322,30.762,-8.911
0.810,0.834,0.694,80.688,23.865,-14.648
0.774,0.875,0.703,79.224,22.522,-17.639

0.535,0.368,0.832,30.640,26.672,-2.075
0.598,0.361,0.795,35.706,28.992,-1.526
0.657,0.361,0.767,38.635,29.907,-1.038
0.704,0.369,0.763,39.246,29.602,-0.793
0.743,0.365,0.787,39.063,28.503,-0.549
0.786,0.357,0.817,39.551,27.588,-0.244
0.827,0.362,0.839,42.236,27.466,1.160
0.857,0.369,0.871,45.227,26.733,2.502
0.886,0.366,0.890,50.354,25.940,3.052
0.915,0.360,0.927,58.044,25.269,3.174
0.927,0.351,0.982,66.650,25.024,2.869
1.015,0.021,0.692,95.032,4.395,19.348
1.018,0.021,0.706,88.928,2.625,25.085
1.013,0.016,0.692,82.825,-0.793,31.494
1.014,-0.001,0.679,76.172,-3.723,38.208
1.005,-0.002,0.667,69.946,-6.226,43.762
0.985,0.039,0.624,72.815,-9.094,49.072
0.964,0.095,0.553,82.214,-12.024,55.176
0.935,0.171,0.503,94.299,-15.686,61.401
0.893,0.198,0.469,108.765,-19.897,67.078
0.843,0.202,0.428,125.793,-24.414,74.768
0.790,0.174,0.397,143.555,-30.518,86.060
0.753,0.122,0.349,160.034,-37.598,100.891
0.715,0.036,0.291,171.997,-45.593,117.310
0.674,-0.015,0.308,174.683,-56.458,134.155
0.605,-0.099,0.294,172.791,-67.383,150.879
0.524,-0.148,0.295,175.171,-77.576,165.222
0.438,-0.156,0.291,174.011,-88.806,178.223
0.337,-0.141,0.262,169.189,-101.746,190.369
0.214,-0.160,0.287,158.325,-115.723,201.660
0.084,-0.141,0.288,145.996,-130.310,213.257
-0.060,-0.118,0.280,133.118,-145.081,224.182
-0.220,-0.086,0.275,119.385,-161.621,234.070
-0.398,-0.057,0.256,99.487,-178.833,243.286
-0.603,-0.040,0.211,73.975,-196.167,251.160
-0.867,-0.048,0.178,43.945,-213.379,258.179
-1.193,-0.038,0.258,8.545,-229.980,262.878
-1.550,0.026,0.225,-16.846,-241.821,262.268
-1.969,0.175,0.405,-48.767,-250.793,253.784
-1.993,0.466,0.940,-0.732,-267.395,216.919
-2.313,0.505,1.393,-25.391,-249.451,206.604
-2.505,0.382,1.487,-5.188,-225.525,195.923
-2.327,0.396,1.284,35.034,-195.801,187.866
-1.907,0.508,0.985,60.730,-167.419,175.720
-1.526,0.582,0.808,55.603,-138.367,153.870
-1.279,0.587,0.741,30.823,-108.459,127.502
-0.954,0.572,0.723,8.728,-83.374,106.445
-0.727,0.541,0.789,-12.024,-64.209,86.487
-0.639,0.519,0.857,-25.696,-46.936,62.378
-0.592,0.558,0.925,-34.607,-32.471,36.987
-0.610,0.577,0.914,-49.072,-22.644,12.817
-0.589,0.557,0.888,-68.726,-14.526,-8.667
-0.537,0.486,0.841,-85.938,-7.019,-27.100
-0.469,0.446,0.833,-102.478,0.305,-41.687
-0.384,0.437,0.874,-119.141,5.493,-52.246
-0.317,0.454,0.966,-134.155,9.277,-60.547
-0.326,0.474,1.038,-140.198,10.681,-65.430
-0.398,0.524,1.104,-138.000,12.146,-66.162
-0.477,0.541,1.058,-128.357,13.672,-64.209
-0.556,0.543,1.013,-121.582,17.822,-64.575
-0.565,0.518,0.870,-108.643,21.545,-64.697
-0.630,0.510,0.778,-98.877,24.597,-68.359
-0.641,0.552,0.664,-99.548,26.672,-74.585
-0.636,0.590,0.639,-109.863,28.015,-80.933
-0.589,0.638,0.646,-120.544,29.541,-86.609
-0.437,0.675,0.555,-133.972,30.884,-92.041
-0.315,0.708,0.653,-159.180,31.677,-98.267
-0.246,0.761,0.722,-171.875,30.884,-103.821
-0.250,0.825,0.812,-172.852,27.710,-108.826
-0.313,0.871,0.880,-163.513,23.865,-112.610
-0.387,0.889,0.876,-146.118,21.729,-114.990
-0.440,0.860,0.860,-130.005,21.057,-116.882
-0.474,0.785,0.770,-114.502,21.118,-119.202
-0.469,0.735,0.604,-103.333,20.813,-123.291
-0.422,0.690,0.492,-106.018,20.447,-127.502
-0.312,0.690,0.464,-119.751,19.531,-132.751
-0.216,0.740,0.474,-135.193,18.250,-138.672
-0.185,0.806,0.474,-146.240,15.625,-144.348
-0.207,0.886,0.455,-151.978,12.451,-147.461
-0.244,0.915,0.418,-155.884,8.118,-149.658
-0.280,0.946,0.342,-158.936,3.174,-151.489
-0.295,0.979,0.298,-158.142,0.061,-151.062
-0.297,1.005,0.254,-154.907,-3.662,-151.184
-0.282,0.966,0.235,-155.579,-8.179,-152.649
-0.254,0.880,0.250,-160.278,-11.536,-153.931
-0.224,0.841,0.227,-164.001,-14.771,-156.128
-0.132,0.829,0.141,-169.067,-17.334,-158.264
-0.045,0.834,0.076,-178.955,-20.630,-158.813
0.050,0.825,0.047,-186.890,-20.569,-155.823
0.161,0.823,0.030,-191.650,-24.292,-154.663
0.253,0.801,0.043,-193.115,-30.884,-154.602
0.292,0.850,0.076,-192.078,-37.964,-154.358
0.355,0.948,0.198,-187.927,-41.809,-151.672
0.414,0.928,0.341,-178.345,-39.917,-143.494
0.411,0.900,0.331,-155.090,-35.583,-135.437
0.497,0.899,0.424,-127.991,-32.043,-131.104
0.550,0.825,0.431,-100.037,-26.184,-124.329
0.622,0.750,0.412,-77.759,-22.217,-115.356
0.722,0.614,0.354,-65.674,-18.433,-106.567
0.813,0.515,0.349,-54.810,-17.456,-98.389
0.879,0.545,0.403,-45.837,-16.541,-91.064
0.938,0.583,0.453,-37.659,-16.235,-84.900
0.967,0.583,0.537,-29.541,-15.503,-78.369
0.978,0.630,0.630,-17.273,-13.611,-72.510
1.010,0.638,0.692,-0.977,-11.353,-66.467
1.035,0.663,0.734,19.897,-8.850,-58.777
1.074,0.677,0.762,42.297,-8.118,-51.147
1.113,0.706,0.791,62.744,-8.179,-44.312
1.151,0.679,0.767,78.186,-9.155,-36.194
1.153,0.693,0.769,87.280,-6.226,-28.625
1.235,0.674,0.792,91.919,-1.221,-20.813
1.182,0.661,0.680,91.125,-7.690,-20.386
1.131,0.677,0.601,95.154,-8.362,-19.897
1.137,0.697,0.650,85.938,1.953,-18.005
1.136,0.706,0.615,82.397,3.113,-19.714
1.050,0.744,0.600,80.078,2.075,-25.085
1.013,0.772,0.577,76.599,8.545,-28.809
0.999,0.774,0.564,74.463,16.785,-31.067
0.999,0.811,0.520,81.360,20.996,-33.264

-0.627,0.033,0.076,46.631,35.583,-113.281
-0.601,0.000,0.078,48.340,34.058,-100.464
-0.577,-0.034,0.081,47.791,32.166,-87.891
-0.553,-0.064,0.080,45.044,30.090,-76.050
-0.534,-0.086,0.073,41.016,27.832,-64.819
-0.509,-0.096,0.060,34.607,25.879,-54.382
-0.486,-0.098,0.051,26.550,23.254,-44.250
-0.465,-0.087,0.046,18.616,20.325,-34.363
-0.450,-0.075,0.041,11.963,17.273,-24.292
-0.436,-0.060,0.034,6.531,13.977,-13.916
-0.423,-0.046,0.029,1.282,10.376,-3.845
-0.416,-0.034,0.027,-3.296,6.714,6.836
-0.413,-0.021,0.028,-7.263,2.625,18.311
-0.418,-0.008,0.028,-9.705,-1.160,30.151
-0.430,-0.001,0.026,-11.841,-4.883,42.175
-0.440,0.004,0.024,-14.038,-8.240,54.504
-0.450,0.005,0.023,-17.151,-11.841,66.528
-0.463,0.016,0.003,-19.104,-14.832,78.674
-0.482,0.026,-0.007,-21.790,-18.555,90.759
-0.500,0.013,0.016,-25.757,-21.973,103.149
-0.523,0.022,-0.013,-28.442,-25.940,114.868
-0.551,0.045,-0.018,-30.273,-28.564,127.502
-0.599,0.058,-0.019,-34.180,-33.203,139.771
-0.654,0.082,-0.026,-37.109,-37.292,151.794
-0.713,0.104,-0.028,-40.527,-41.626,163.574
-0.774,0.121,-0.024,-43.640,-46.143,175.598
-0.842,0.130,-0.013,-44.739,-50.720,187.805
-0.912,0.128,-0.009,-44.800,-55.176,199.524
-0.974,0.124,-0.016,-44.739,-58.899,211.121
-1.035,0.124,-0.031,-45.349,-62.500,221.985
-1.100,0.124,-0.042,-46.936,-66.650,232.422
-1.175,0.128,-0.052,-47.974,-70.740,242.187
-1.265,0.142,-0.063,-47.974,-74.768,251.404
-1.361,0.159,-0.078,-48.279,-78.430,260.437
-1.466,0.174,-0.058,-50.903,-83.069,268.433
-1.572,0.191,-0.075,-50.293,-86.914,275.146
-1.680,0.218,-0.061,-59.082,-89.172,279.114
-1.784,0.247,-0.050,-72.754,-89.355,285.461
-1.881,0.284,-0.017,-85.266,-87.585,293.030
-1.955,0.322,-0.013,-91.675,-85.999,303.223
-1.987,0.428,-0.254,-96.191,-83.496,312.805
-2.112,0.275,0.128,-132.751,-73.792,314.148
-2.078,0.284,0.143,-72.571,-68.909,315.796
-2.038,0.310,0.031,-14.282,-66.223,314.331
-1.942,0.272,0.029,24.109,-64.148,308.655
-1.884,0.274,0.006,52.856,-59.692,295.898
-1.813,0.277,-0.009,70.801,-52.185,280.823
-1.740,0.332,-0.017,85.327,-47.119,270.569
-1.630,0.265,0.008,81.848,-42.419,261.047
-1.545,0.247,0.010,80.566,-36.804,251.221
-1.432,0.188,0.078,66.162,-31.433,238.159
-1.313,0.092,0.107,57.190,-34.912,220.825
-1.237,0.047,0.120,68.176,-42.175,196.167
-1.163,0.013,0.125,73.853,-45.593,169.678
-1.235,0.092,0.122,69.458,-47.668,142.822
-1.200,0.097,0.101,61.768,-47.363,124.207
-1.153,0.079,0.102,59.387,-44.983,109.009
-1.142,0.061,0.102,59.265,-41.748,93.872
-1.135,0.048,0.091,55.847,-39.063,80.261
-1.119,0.031,0.091,48.889,-35.278,68.237
-1.101,0.027,0.093,39.001,-31.372,57.678
-1.080,0.022,0.087,26.001,-28.748,47.363
-1.061,0.039,0.083,14.038,-26.367,37.292
-1.039,0.076,0.070,4.517,-23.437,28.381
-1.030,0.112,0.052,-2.136,-20.020,20.813
-1.007,0.110,0.062,-8.423,-16.541,14.709
-0.998,0.123,0.065,-12.390,-14.465,8.911
-0.985,0.135,0.071,-14.832,-12.329,3.174
-0.982,0.157,0.076,-14.771,-10.315,-2.197
-0.971,0.172,0.086,-14.954,-7.385,-6.714
-0.969,0.193,0.091,-14.099,-5.310,-11.230
-0.965,0.216,0.100,-12.451,-2.991,-15.381
-0.966,0.238,0.103,-10.254,-0.671,-19.409
-0.967,0.260,0.111,-7.080,2.258,-23.193
-0.984,0.272,0.117,-4.578,5.432,-27.161
-0.993,0.264,0.123,-3.418,8.057,-32.959
-1.002,0.276,0.122,-0.671,10.620,-40.344
-1.005,0.285,0.121,4.761,12.573,-43.762
-1.018,0.283,0.121,12.390,14.587,-44.434
-1.041,0.262,0.121,20.264,16.785,-46.570
-1.041,0.190,0.112,28.442,18.677,-50.110
-1.088,0.233,0.120,34.546,21.851,-63.721
-1.113,0.210,0.100,32.593,21.790,-70.496
-1.121,0.189,0.099,32.104,24.536,-70.862
-1.156,0.157,0.068,34.851,26.794,-74.097
-1.144,0.098,0.091,36.255,27.100,-80.078
-1.162,0.061,0.090,24.170,29.480,-86.304
-1.188,0.062,0.087,18.677,30.273,-93.384
-1.223,0.076,0.066,16.174,30.457,-100.220
-1.250,0.101,0.043,13.733,30.640,-106.384
-1.283,0.120,0.008,10.498,31.738,-110.718
-1.309,0.113,-0.009,5.432,33.997,-113.342
-1.325,0.151,-0.015,3.601,35.889,-115.906
-1.389,0.128,0.000,4.089,38.452,-119.629
-1.452,0.140,0.036,4.333,43.152,-123.169
-1.499,0.124,0.037,5.188,46.997,-130.554
-1.546,0.054,0.013,-0.122,49.927,-143.250
-1.576,-0.035,-0.034,-6.958,53.101,-160.339
-1.615,-0.071,-0.074,-9.338,57.007,-182.190
-1.657,-0.015,-0.087,-4.333,60.181,-200.745
-1.645,0.010,-0.128,-7.568,60.120,-201.965
-1.667,-0.033,-0.093,-18.066,66.467,-206.421
-1.691,-0.048,-0.109,-1.648,69.580,-225.647
-1.706,0.017,-0.104,3.723,70.740,-236.755
-1.717,0.089,-0.058,7.507,74.646,-245.972
-1.713,0.177,0.054,11.292,77.942,-253.357
-1.776,0.219,-0.138,24.109,84.167,-257.507
-1.781,0.159,0.142,-5.981,82.275,-261.230
-1.809,0.122,0.037,15.198,76.904,-261.475
-1.797,0.180,-0.025,71.838,97.290,-267.456
-1.703,0.068,-0.322,72.571,107.178,-268.188
-1.724,0.065,0.054,26.245,102.600,-268.127
-1.550,0.160,-0.068,29.297,101.257,-262.146
-1.471,0.139,-0.039,18.494,93.201,-257.507
-1.439,0.156,-0.045,3.601,88.379,-249.695
-1.320,0.096,0.010,-19.531,85.022,-234.009
-1.233,0.040,0.010,-20.203,80.261,-223.083
-1.149,-0.008,0.020,-17.395,76.355,-220.459
-1.083,-0.018,0.035,-18.982,72.388,-216.492

-1.052,-0.108,0.117,-24.414,-29.236,31.433
-1.052,-0.088,0.129,-36.011,-26.672,25.757
-1.042,-0.071,0.145,-45.166,-23.071,18.433
-1.034,-0.036,0.144,-52.124,-19.592,10.498
-1.020,-0.001,0.153,-56.519,-15.198,4.395
-1.012,0.039,0.157,-59.204,-10.925,0.000
-1.011,0.076,0.159,-60.181,-7.507,-3.357
-1.014,0.106,0.165,-60.303,-4.150,-5.981
-1.023,0.135,0.165,-60.547,-0.977,-9.216
-1.026,0.159,0.165,-60.181,2.075,-13.062
-1.038,0.194,0.157,-57.434,4.150,-16.785
-1.046,0.208,0.161,-52.490,7.812,-20.691
-1.066,0.245,0.150,-43.884,11.047,-23.926
-1.086,0.267,0.151,-38.147,16.357,-25.391
-1.080,0.240,0.156,-35.583,19.348,-28.748
-1.087,0.226,0.145,-31.250,19.775,-34.912
-1.098,0.227,0.139,-26.855,21.912,-40.466
-1.113,0.211,0.130,-23.804,24.780,-44.800
-1.125,0.164,0.143,-27.283,27.039,-48.828
-1.126,0.119,0.161,-32.471,29.480,-54.382
-1.146,0.133,0.165,-35.278,31.189,-61.218
-1.155,0.144,0.157,-45.776,33.264,-67.993
-1.160,0.157,0.139,-49.072,33.386,-75.317
-1.167,0.158,0.113,-52.979,34.241,-83.008
-1.175,0.164,0.102,-58.655,34.912,-91.492
-1.205,0.182,0.095,-67.810,36.011,-101.318
-1.214,0.242,0.082,-81.116,37.659,-111.450
-1.272,0.186,0.073,-100.342,40.100,-121.582
-1.300,0.171,0.079,-112.427,42.542,-131.775
-1.319,0.155,0.094,-119.263,43.640,-146.240
-1.341,0.143,0.081,-117.310,43.640,-167.419
-1.397,0.179,0.065,-109.131,44.800,-189.636
-1.453,0.216,0.041,-102.112,47.241,-206.421
-1.535,0.293,-0.037,-98.083,48.584,-216.980
-1.584,0.240,-0.010,-100.891,49.500,-225.098
-1.592,0.236,-0.041,-82.092,50.903,-238.281
-1.649,0.344,-0.045,-56.030,49.744,-251.465
-1.697,0.365,-0.100,-34.851,49.805,-263.794
-1.740,0.374,-0.104,-17.151,50.415,-273.560
-1.774,0.385,-0.101,-0.916,51.392,-279.175
-1.797,0.375,-0.098,15.198,53.650,-282.166
-1.802,0.391,-0.091,29.541,56.335,-282.654
-1.779,0.398,-0.045,37.964,58.716,-280.396
-1.736,0.391,-0.021,42.297,61.768,-278.015
-1.680,0.369,-0.023,41.504,65.063,-276.794
-1.755,0.326,-0.074,37.537,67.749,-275.391
-1.657,0.277,0.116,13.245,70.496,-263.733
-1.522,0.329,0.071,13.672,67.017,-246.643
-1.409,0.236,0.068,20.752,63.721,-238.098
-1.321,0.125,0.071,28.137,62.622,-233.398
-1.214,0.070,0.055,33.813,61.340,-226.440
-1.099,0.051,0.019,35.461,58.838,-217.773
-0.997,0.046,0.001,33.203,56.946,-209.839
-0.900,0.051,-0.006,29.846,54.932,-202.576
-0.829,0.052,-0.008,24.963,50.903,-196.716
-0.761,0.042,-0.011,18.738,46.692,-190.857
-0.700,0.037,0.003,11.475,43.152,-183.960
-0.659,0.063,0.030,5.920,40.100,-175.293
-0.620,0.069,0.060,4.700,37.781,-165.039
-0.585,0.084,0.050,5.127,35.583,-153.748
-0.547,0.092,0.063,4.150,34.180,-142.822
-0.520,0.080,0.060,6.165,31.555,-130.798
-0.498,0.068,0.056,10.071,28.503,-117.493
-0.458,0.054,0.048,14.709,25.513,-102.844
-0.421,0.039,0.045,19.165,22.461,-87.708
-0.385,0.025,0.043,23.254,18.616,-73.120
-0.376,0.017,0.044,27.222,14.343,-59.387
-0.368,0.013,0.043,31.433,11.658,-44.739
-0.367,0.011,0.039,34.363,9.338,-30.029
-0.373,0.018,0.036,35.095,7.263,-15.320
-0.373,0.018,0.028,34.424,5.005,-2.197
-0.343,0.048,0.012,30.945,1.770,10.193
-0.371,-0.029,0.015,22.766,-2.136,22.156
-0.362,-0.023,0.022,17.456,-5.188,34.973
-0.373,-0.043,0.031,9.399,-9.277,46.326
-0.397,-0.042,0.039,3.540,-13.184,58.472
-0.425,-0.032,0.040,-1.892,-16.174,70.129
-0.448,-0.015,0.039,-6.714,-19.043,81.360
-0.474,0.015,0.032,-10.437,-22.034,92.041
-0.500,0.043,0.022,-14.343,-25.208,102.661
-0.528,0.083,0.007,-17.639,-28.015,113.770
-0.561,0.113,-0.008,-20.508,-31.189,124.451
-0.595,0.135,-0.031,-24.170,-34.302,134.827
-0.632,0.154,-0.046,-28.320,-38.330,145.142
-0.672,0.151,-0.045,-33.630,-42.358,154.724
-0.715,0.150,-0.056,-39.551,-45.593,164.734
-0.776,0.152,-0.049,-45.044,-48.462,174.622
-0.851,0.132,-0.021,-52.063,-50.537,183.350
-0.918,0.156,-0.020,-59.143,-51.331,192.566
-0.984,0.159,0.027,-65.247,-55.542,199.951
-1.075,0.235,0.000,-62.073,-51.819,210.937
-1.172,0.282,0.020,-61.035,-48.523,223.877
-1.266,0.303,0.023,-62.561,-50.720,235.168
-1.350,0.307,0.031,-60.242,-55.115,245.667
-1.430,0.315,0.025,-55.054,-58.167,256.042
-1.505,0.316,0.017,-47.424,-60.364,265.991
-1.578,0.311,0.019,-37.170,-62.683,275.330
-1.652,0.332,0.014,-21.851,-65.125,283.997
-1.728,0.360,0.026,-3.174,-68.726,291.687
-1.797,0.401,0.021,19.897,-72.571,298.401
-1.839,0.435,0.016,43.091,-77.454,304.321
-1.890,0.471,0.126,65.796,-85.815,308.838
-1.944,0.512,0.073,100.647,-91.492,312.866
-1.957,0.572,0.000,111.328,-86.609,316.528
-1.898,0.547,0.099,62.500,-88.745,321.350
-1.789,0.445,0.243,21.057,-88.257,321.960
-1.755,0.402,0.242,48.340,-88.379,311.584
-1.666,0.376,0.159,91.003,-84.229,296.387
-1.513,0.330,0.127,123.352,-77.332,279.541
-1.422,0.316,0.120,162.170,-72.876,255.371
-1.336,0.274,0.118,189.880,-72.021,232.117
-1.299,0.339,0.064,202.026,-67.505,211.182
-1.249,0.359,0.056,218.445,-66.223,189.331
-1.159,0.214,0.070,219.910,-66.650,168.152
-1.120,0.071,0.051,210.205,-69.702,150.024
-1.105,-0.080,0.021,189.758,-69.031,130.188
-1.107,-0.149,-0.000,172.058,-66.956,111.084
-1.116,-0.234,-0.011,147.034,-63.538,92.896
-1.115,-0.344,-0.005,114.685,-57.800,75.684

0.114,0.887,0.612,6.836,1.038,-22.827
0.134,0.862,0.610,8.118,0.610,-23.071
0.159,0.801,0.604,8.240,0.854,-23.071
0.187,0.738,0.616,6.958,0.610,-22.766
0.219,0.695,0.621,4.395,0.854,-22.705
0.250,0.668,0.628,-0.671,1.099,-23.071
0.286,0.647,0.636,-6.897,1.038,-23.499
0.342,0.629,0.633,-11.414,1.709,-23.376
0.411,0.610,0.638,-14.587,2.197,-22.705
0.475,0.607,0.646,-15.198,2.197,-20.813
0.513,0.628,0.673,-13.916,3.235,-18.494
0.551,0.623,0.719,-10.437,4.211,-16.357
0.582,0.603,0.753,-1.953,5.554,-12.878
0.622,0.541,0.770,8.667,7.263,-8.911
0.679,0.476,0.789,22.705,10.193,-4.150
0.742,0.394,0.758,41.565,13.123,1.648
0.827,0.232,0.740,59.509,16.724,7.629
0.910,0.129,0.698,71.960,17.822,10.559
0.982,0.055,0.653,83.435,17.822,13.916
1.010,-0.005,0.596,93.628,15.442,17.761
1.113,-0.047,0.527,101.624,11.841,23.865
0.931,-0.005,0.547,112.366,17.273,47.302
0.996,-0.207,0.546,114.624,21.729,59.753
1.050,-0.281,0.531,120.361,15.564,59.021
1.031,-0.282,0.503,123.108,8.179,64.270
1.065,-0.286,0.432,124.084,1.282,74.219
1.048,-0.305,0.365,124.573,-5.676,86.853
1.028,-0.348,0.355,117.126,-13.733,99.976
0.976,-0.348,0.313,116.394,-25.208,113.281
0.912,-0.371,0.290,120.605,-40.771,127.686
0.764,-0.278,0.234,132.812,-56.519,144.165
0.619,-0.296,0.263,119.934,-78.613,159.302
0.476,-0.272,0.260,116.150,-104.797,175.476
0.287,-0.234,0.277,110.413,-129.761,194.031
0.076,-0.177,0.313,101.624,-153.564,213.196
-0.177,-0.136,0.354,92.041,-178.040,231.323
-0.460,-0.112,0.333,83.191,-203.674,247.498
-0.810,-0.090,0.268,64.392,-229.431,262.146
-1.272,-0.084,0.232,30.396,-255.005,275.024
-1.894,0.037,0.356,-8.301,-279.358,283.203
-2.593,0.234,0.564,-50.598,-297.607,278.809
-3.277,0.458,0.654,-85.815,-303.223,262.512
-3.760,0.641,0.734,-114.685,-294.678,240.601
-3.923,0.921,0.474,-105.164,-278.320,218.689
-3.726,1.186,0.592,-66.895,-246.582,193.115
-3.334,1.328,0.591,-15.564,-203.552,167.114
-2.637,1.182,0.515,29.846,-151.855,151.367
-2.041,0.997,0.550,41.687,-107.605,143.250
-1.617,0.780,0.494,39.734,-71.533,134.827
-1.414,0.600,0.510,23.437,-41.809,116.516
-1.325,0.572,0.473,17.334,-13.611,87.280
-1.232,0.520,0.513,-5.066,9.033,51.575
-1.148,0.511,0.515,-26.794,23.437,16.846
-1.087,0.448,0.503,-39.978,29.724,-6.897
-1.056,0.363,0.503,-50.964,32.410,-24.719
-1.012,0.311,0.515,-55.237,35.339,-39.673
-0.968,0.328,0.558,-54.260,35.706,-52.612
-0.930,0.378,0.542,-52.185,34.668,-63.904
-0.897,0.427,0.540,-57.617,32.349,-73.547
-0.898,0.442,0.528,-51.086,31.128,-79.285
-0.889,0.451,0.518,-37.292,31.616,-81.604
-0.904,0.465,0.538,-26.672,32.837,-81.909
-0.936,0.472,0.562,-18.250,34.851,-80.688
-0.955,0.466,0.566,-10.132,36.560,-77.942
-0.974,0.462,0.558,-1.282,37.476,-74.829
-0.990,0.455,0.534,6.958,39.001,-72.998
-0.993,0.456,0.499,15.015,40.588,-72.449
-0.986,0.453,0.487,20.813,41.809,-73.425
-1.008,0.469,0.466,24.597,42.542,-76.111
-1.036,0.503,0.443,27.283,43.884,-79.468
-1.062,0.506,0.411,26.917,45.837,-84.778
-1.062,0.478,0.378,25.146,47.302,-89.905
-1.047,0.486,0.347,23.987,48.767,-93.628
-1.023,0.513,0.347,21.851,51.025,-96.252
-0.980,0.539,0.356,15.564,52.551,-98.572
-0.932,0.577,0.390,9.277,53.650,-99.548
-0.901,0.616,0.462,1.709,55.481,-99.304
-0.891,0.620,0.504,-3.845,59.082,-98.694
-0.895,0.578,0.554,-7.935,62.805,-98.389
-0.892,0.564,0.576,-13.245,65.430,-97.107
-0.877,0.545,0.569,-19.226,67.871,-97.351
-0.834,0.509,0.521,-27.222,69.885,-99.792
-0.769,0.473,0.455,-37.048,71.289,-103.271
-0.665,0.452,0.409,-49.927,71.472,-106.689
-0.547,0.474,0.382,-63.660,70.068,-108.521
-0.448,0.521,0.388,-76.965,68.481,-109.070
-0.354,0.555,0.384,-86.853,66.528,-108.032
-0.260,0.572,0.372,-91.125,63.293,-104.797
-0.175,0.572,0.404,-92.102,59.387,-100.220
-0.119,0.609,0.493,-90.454,55.542,-95.093
-0.073,0.604,0.562,-85.999,53.162,-90.332
-0.022,0.546,0.585,-81.177,50.720,-85.449
0.048,0.482,0.593,-75.745,49.194,-80.200
0.125,0.463,0.619,-69.275,47.729,-74.402
0.178,0.547,0.673,-62.683,46.021,-69.641
0.181,0.641,0.702,-58.960,43.396,-66.711
0.187,0.625,0.731,-52.856,39.124,-62.805
0.166,0.665,0.702,-39.368,34.912,-57.495
0.142,0.712,0.718,-38.574,33.386,-54.626
0.153,0.684,0.692,-35.095,31.006,-52.490
0.200,0.637,0.659,-32.349,27.466,-49.316
0.247,0.657,0.674,-30.334,24.536,-46.143
0.247,0.746,0.713,-26.978,21.973,-44.678
0.211,0.778,0.759,-23.315,19.775,-43.823
0.195,0.750,0.809,-17.029,18.494,-40.710
0.204,0.724,0.827,-6.897,18.188,-37.109
0.185,0.757,0.861,-1.160,18.311,-36.682
0.172,0.797,0.880,4.211,19.836,-37.231
0.151,0.807,0.896,10.376,20.752,-37.720
0.142,0.767,0.867,17.639,21.545,-37.231
0.161,0.676,0.829,21.362,23.682,-36.011
0.208,0.586,0.762,23.132,25.940,-34.668
0.273,0.507,0.685,24.109,27.283,-33.752
0.338,0.454,0.598,23.315,26.489,-33.020
0.369,0.441,0.555,16.785,22.705,-33.325
0.363,0.456,0.542,7.507,18.555,-35.034
0.347,0.415,0.535,-1.526,14.893,-36.377
0.363,0.389,0.544,-5.310,10.986,-33.142
0.348,0.424,0.608,-4.761,10.254,-28.259

0.195,0.719,0.634,12.024,2.258,-6.836
0.214,0.713,0.673,14.832,3.662,-7.080
0.249,0.700,0.682,19.775,5.676,-7.141
0.281,0.707,0.678,23.743,7.874,-6.653
0.314,0.687,0.656,25.330,9.338,-6.470
0.353,0.651,0.623,25.879,9.949,-6.653
0.389,0.607,0.623,23.315,9.399,-7.446
0.418,0.568,0.633,18.616,9.155,-8.606
0.436,0.572,0.640,14.282,9.155,-10.559
0.453,0.574,0.639,10.193,8.179,-12.817
0.474,0.588,0.648,6.775,6.592,-14.954
0.501,0.592,0.659,4.028,4.883,-16.602
0.523,0.614,0.653,3.418,3.418,-17.578
0.544,0.656,0.701,2.014,1.404,-18.494
0.554,0.672,0.762,3.113,-0.061,-19.348
0.578,0.657,0.812,9.216,-0.671,-19.348
0.610,0.612,0.829,17.883,0.549,-18.921
0.645,0.559,0.829,25.757,2.441,-18.799
0.681,0.499,0.799,32.471,3.906,-18.066
0.717,0.442,0.746,39.673,4.272,-17.151
0.747,0.360,0.687,46.143,4.028,-15.259
0.786,0.273,0.605,53.589,2.930,-11.780
0.815,0.161,0.469,62.866,0.854,-6.592
0.867,0.018,0.309,68.726,-3.906,0.793
0.924,-0.109,0.170,68.848,-10.437,11.108
0.985,-0.243,0.035,64.880,-18.250,22.827
1.003,-0.383,-0.062,58.777,-28.442,36.865
0.985,-0.512,-0.048,50.232,-40.039,54.016
0.957,-0.667,-0.056,45.776,-53.162,76.416
0.905,-0.755,-0.019,46.265,-68.054,105.225
0.774,-0.731,0.089,52.307,-83.679,137.451
0.590,-0.583,0.189,65.002,-99.304,171.143
0.390,-0.378,0.316,76.660,-113.770,203.369
0.186,-0.207,0.345,93.933,-132.751,231.750
-0.035,-0.127,0.252,116.211,-159.607,255.249
-0.290,-0.054,0.094,128.723,-190.918,274.353
-0.612,0.058,-0.087,127.380,-223.999,289.124
-0.976,0.062,-0.277,118.896,-256.958,300.110
-1.486,0.113,-0.322,113.770,-293.396,312.134
-2.180,0.194,-0.036,91.492,-325.806,317.017
-2.915,0.205,0.309,58.960,-343.445,311.829
-3.603,0.197,0.552,15.747,-355.408,302.734
-4.000,0.520,0.977,-17.029,-333.923,292.114
-4.000,0.896,1.402,-10.254,-292.969,279.114
-4.000,1.180,1.091,45.349,-247.009,258.728
-3.373,1.158,0.662,81.482,-184.082,235.901
-2.563,1.078,0.257,88.562,-111.267,206.665
-1.944,0.872,0.085,88.867,-65.857,179.810
-1.453,0.653,0.057,77.026,-39.001,151.245
-1.167,0.489,0.327,39.795,-15.137,115.540
-1.042,0.517,0.573,8.667,2.441,76.721
-1.039,0.521,0.692,-16.846,8.301,36.926
-1.061,0.482,0.702,-46.082,10.071,-1.587
-1.096,0.469,0.659,-69.275,14.893,-34.851
-1.103,0.426,0.589,-79.285,19.531,-60.547
-1.089,0.391,0.547,-79.407,24.841,-80.750
-1.051,0.381,0.550,-69.275,29.419,-92.285
-1.015,0.376,0.558,-49.622,31.250,-96.008
-0.922,0.343,0.530,-29.602,30.396,-94.971
-0.818,0.290,0.532,-19.836,30.029,-92.285
-0.755,0.236,0.557,-14.832,29.663,-89.905
-0.763,0.195,0.563,-11.292,29.846,-88.318
-0.776,0.172,0.562,-9.094,30.579,-83.984
-0.760,0.180,0.550,-6.165,30.396,-76.538
-0.731,0.189,0.541,-4.822,29.114,-68.237
-0.696,0.192,0.532,-4.700,26.978,-60.364
-0.662,0.203,0.571,-6.714,23.499,-52.856
-0.632,0.234,0.569,-5.737,21.545,-46.570
-0.609,0.264,0.596,-3.845,19.226,-40.283
-0.607,0.284,0.634,-5.249,17.395,-35.767
-0.625,0.316,0.684,-6.897,16.174,-32.532
-0.648,0.351,0.706,-4.700,15.198,-30.029
-0.675,0.372,0.699,0.854,14.771,-28.564
-0.668,0.383,0.671,8.301,15.503,-27.222
-0.650,0.393,0.658,13.489,15.930,-26.367
-0.656,0.380,0.664,14.465,16.541,-28.259
-0.684,0.375,0.663,13.367,17.578,-31.494
-0.702,0.392,0.664,11.719,19.104,-33.936
-0.708,0.409,0.672,9.583,20.142,-36.072
-0.715,0.394,0.670,8.362,20.874,-37.170
-0.721,0.387,0.647,7.507,21.423,-37.476
-0.742,0.393,0.623,5.371,22.583,-38.269
-0.764,0.402,0.605,1.343,24.170,-40.100
-0.776,0.422,0.581,-3.662,25.085,-41.748
-0.778,0.441,0.564,-6.653,26.123,-42.664
-0.772,0.458,0.555,-8.484,28.442,-43.640
-0.766,0.484,0.565,-10.376,30.823,-44.739
-0.762,0.507,0.576,-14.221,33.020,-46.387
-0.756,0.520,0.596,-18.921,35.522,-48.523
-0.744,0.519,0.610,-22.339,38.208,-51.147
-0.722,0.508,0.614,-23.804,40.527,-53.589
-0.694,0.497,0.613,-25.146,42.664,-55.481
-0.665,0.502,0.613,-27.100,43.457,-56.946
-0.641,0.502,0.608,-29.541,43.396,-58.289
-0.624,0.493,0.597,-31.677,42.725,-59.204
-0.607,0.492,0.571,-33.447,41.748,-59.631
-0.588,0.492,0.549,-35.339,40.466,-60.364
-0.570,0.514,0.557,-37.781,38.818,-61.035
-0.575,0.539,0.588,-39.063,37.842,-61.829
-0.576,0.553,0.608,-39.978,37.903,-61.829
-0.557,0.556,0.616,-40.649,38.574,-61.340
-0.529,0.548,0.612,-40.955,39.063,-61.340
-0.485,0.546,0.607,-40.710,39.063,-61.768
-0.440,0.542,0.615,-39.673,38.513,-62.073
-0.404,0.547,0.627,-38.269,37.720,-61.829
-0.384,0.575,0.638,-36.621,36.804,-60.852
-0.374,0.581,0.644,-34.973,35.461,-59.631
-0.351,0.544,0.642,-33.081,33.386,-57.800
-0.329,0.527,0.584,-29.541,31.189,-55.664
-0.328,0.556,0.613,-33.081,29.297,-54.443
-0.339,0.611,0.620,-34.485,26.917,-53.406
-0.365,0.624,0.633,-35.950,24.353,-52.307
-0.377,0.605,0.632,-36.621,22.766,-50.232
-0.383,0.598,0.631,-36.316,22.461,-48.279
-0.358,0.621,0.625,-35.095,23.132,-46.753
-0.341,0.658,0.637,-34.973,23.926,-46.326
-0.325,0.662,0.644,-34.607,23.987,-45.898
-0.305,0.633,0.637,-33.142,23.254,-45.288
-0.281,0.620,0.651,-33.447,23.071,-44.800

0.209,0.723,0.613,3.723,24.536,-2.075
0.220,0.719,0.596,10.071,24.475,0.610
0.230,0.739,0.596,14.832,24.048,3.357
0.235,0.765,0.597,18.799,23.926,5.432
0.232,0.799,0.608,22.156,23.926,7.202
0.234,0.796,0.596,23.193,23.987,8.362
0.248,0.765,0.571,22.156,23.499,8.667
0.271,0.743,0.567,18.005,23.071,8.545
0.296,0.740,0.565,13.611,22.339,7.507
0.318,0.747,0.570,8.240,21.179,5.554
0.341,0.750,0.576,2.197,20.447,3.113
0.363,0.747,0.612,-2.441,19.104,0.977
0.373,0.766,0.664,-5.371,18.555,-0.854
0.390,0.785,0.682,-5.310,18.250,-2.441
0.410,0.793,0.708,-3.601,17.334,-3.296
0.435,0.790,0.749,0.061,15.930,-3.174
0.465,0.795,0.770,5.615,14.954,-3.601
0.497,0.805,0.774,10.925,15.015,-4.639
0.539,0.783,0.755,16.052,14.343,-6.042
0.587,0.742,0.722,20.142,12.634,-8.301
0.621,0.743,0.674,22.949,10.681,-11.292
0.631,0.767,0.647,23.254,7.935,-15.320
0.614,0.791,0.656,22.888,5.493,-19.958
0.596,0.786,0.672,23.865,3.113,-24.170
0.583,0.761,0.678,28.381,1.221,-26.794
0.586,0.715,0.704,33.691,0.671,-29.053
0.595,0.662,0.707,37.781,0.671,-31.189
0.615,0.624,0.706,41.016,0.366,-32.166
0.626,0.594,0.714,42.114,0.244,-33.020
0.644,0.549,0.680,43.762,-0.305,-33.508
0.663,0.538,0.619,44.189,-2.197,-33.264
0.683,0.580,0.556,42.847,-4.944,-32.654
0.708,0.566,0.512,45.288,-8.667,-30.884
0.755,0.437,0.422,60.364,-13.184,-24.658
0.819,0.244,0.311,81.238,-17.029,-13.306
0.870,0.027,0.213,96.130,-19.226,-1.831
0.943,-0.208,0.032,107.849,-22.522,12.146
1.015,-0.447,-0.137,109.375,-27.100,30.762
1.089,-0.663,-0.260,95.581,-36.377,48.584
1.100,-0.861,-0.371,72.937,-52.063,65.125
1.112,-0.938,-0.359,49.744,-69.702,84.045
1.053,-0.918,-0.265,35.889,-86.426,104.370
0.966,-0.863,-0.135,36.133,-101.013,125.854
0.806,-0.764,0.072,51.025,-112.488,149.353
0.666,-0.740,0.150,64.636,-119.263,180.237
0.572,-0.749,0.120,73.181,-128.540,216.003
0.500,-0.646,-0.084,101.501,-149.414,250.793
0.302,-0.580,-0.208,122.620,-180.847,283.752
-0.023,-0.546,-0.327,138.916,-219.360,311.096
-0.424,-0.493,-0.350,148.682,-260.498,333.923
-1.047,-0.208,-0.102,135.925,-296.936,347.351
-1.911,0.172,0.232,108.887,-320.007,350.830
-3.017,0.494,0.467,73.669,-335.144,352.051
-4.000,0.634,1.283,-1.404,-329.468,337.952
-4.000,0.959,1.143,-17.517,-287.903,323.914
-4.000,1.248,1.328,-31.555,-244.080,291.809
-4.000,1.382,0.773,7.507,-233.521,236.389
-3.475,1.401,0.513,41.016,-186.340,180.786
-2.648,1.338,0.454,43.762,-107.849,137.451
-2.223,1.143,0.434,28.076,-45.837,94.666
-1.993,1.195,0.529,2.319,-8.240,45.959
-1.801,1.130,0.543,-37.781,2.869,6.042
-1.727,1.001,0.547,-62.195,12.268,-29.724
-1.623,0.817,0.557,-65.857,28.015,-63.782
-1.531,0.607,0.592,-65.369,38.757,-88.257
-1.442,0.467,0.567,-53.406,43.701,-104.187
-1.345,0.400,0.507,-37.048,43.335,-115.112
-1.278,0.395,0.408,-21.545,40.466,-125.854
-1.164,0.374,0.344,-11.841,37.598,-134.094
-1.044,0.326,0.354,-12.085,33.386,-139.038
-1.000,0.289,0.367,-14.343,30.884,-140.930
-1.014,0.305,0.411,-18.677,32.959,-140.015
-1.049,0.345,0.469,-21.851,37.354,-136.963
-1.082,0.382,0.501,-20.874,41.138,-132.996
-1.080,0.411,0.502,-19.043,43.091,-129.333
-1.048,0.425,0.500,-17.151,43.823,-126.648
-1.010,0.428,0.503,-17.090,44.128,-125.366
-0.968,0.447,0.519,-18.066,45.532,-125.244
-0.902,0.458,0.532,-18.127,47.363,-124.878
-0.812,0.473,0.551,-18.005,48.889,-123.901
-0.726,0.510,0.593,-17.334,50.476,-121.521
-0.656,0.524,0.625,-15.503,52.795,-118.286
-0.576,0.503,0.629,-14.526,54.077,-113.831
-0.521,0.490,0.633,-13.672,53.711,-109.619
-0.489,0.469,0.621,-15.137,52.307,-106.812
-0.484,0.478,0.595,-21.667,49.011,-105.042
-0.497,0.524,0.577,-28.076,46.631,-103.516
-0.516,0.572,0.572,-36.377,45.288,-102.539
-0.531,0.580,0.566,-45.532,44.434,-100.769
-0.522,0.591,0.577,-54.565,45.105,-98.206
-0.494,0.614,0.582,-63.416,46.387,-96.680
-0.454,0.656,0.566,-72.937,47.546,-96.741
-0.411,0.743,0.598,-82.520,48.645,-97.900
-0.396,0.812,0.651,-89.600,50.049,-99.243
-0.392,0.822,0.688,-89.050,52.002,-98.267
-0.367,0.742,0.677,-81.299,55.298,-94.543
-0.289,0.649,0.635,-74.402,60.791,-90.210
-0.195,0.616,0.595,-70.740,65.796,-85.571
-0.084,0.584,0.539,-69.153,69.458,-80.200
-0.004,0.600,0.536,-72.266,71.533,-74.646
0.074,0.624,0.511,-76.599,71.838,-68.970
0.099,0.675,0.536,-81.726,71.655,-62.256
0.190,0.716,0.506,-82.581,71.167,-53.711
0.270,0.723,0.475,-83.740,71.777,-47.485
0.334,0.721,0.414,-80.994,72.998,-43.091
0.402,0.660,0.342,-75.562,72.388,-40.161
0.457,0.603,0.291,-69.519,71.167,-38.330
0.476,0.572,0.298,-66.101,70.007,-38.147
0.515,0.559,0.301,-64.270,68.359,-38.452
0.539,0.513,0.308,-63.538,65.491,-40.344
0.562,0.474,0.325,-64.636,59.875,-41.260
0.581,0.431,0.357,-67.078,53.406,-42.725
0.604,0.472,0.426,-70.679,45.837,-43.518
0.586,0.561,0.476,-74.463,37.720,-45.532
0.543,0.639,0.559,-72.632,33.630,-45.593
0.487,0.703,0.616,-63.232,29.907,-43.396
0.441,0.721,0.659,-43.884,27.710,-37.659
0.403,0.744,0.703,-19.714,28.564,-30.945
0.378,0.727,0.708,3.662,31.677,-25.940

0.083,0.666,0.838,64.270,-2.686,-19.287
0.069,0.634,0.833,79.712,-3.174,-20.264
0.062,0.604,0.806,94.421,-3.967,-21.667
0.051,0.583,0.801,105.652,-4.578,-21.973
0.043,0.557,0.808,113.525,-4.883,-21.912
0.042,0.543,0.813,119.446,-4.700,-22.278
0.043,0.550,0.819,124.878,-4.517,-23.560
0.041,0.535,0.809,129.883,-5.066,-25.024
0.041,0.480,0.800,130.676,-6.104,-26.611
0.038,0.400,0.795,128.601,-6.836,-28.992
0.025,0.326,0.799,124.329,-6.897,-31.311
0.010,0.287,0.810,117.676,-6.958,-33.630
-0.006,0.274,0.828,110.474,-7.324,-35.278
-0.020,0.266,0.861,102.600,-7.935,-36.865
-0.026,0.259,0.876,94.543,-8.667,-39.551
-0.045,0.263,0.893,87.219,-9.155,-41.931
-0.057,0.263,0.906,82.275,-8.545,-43.091
-0.069,0.252,0.931,79.468,-7.812,-43.457
-0.073,0.238,0.943,78.430,-6.897,-43.091
-0.077,0.199,0.948,77.148,-6.775,-41.748
-0.077,0.170,0.945,75.439,-6.409,-40.833
-0.073,0.147,0.939,73.364,-5.493,-39.246
-0.074,0.118,0.925,70.496,-5.493,-37.537
-0.061,0.088,0.904,66.040,-6.409,-35.095
-0.046,0.033,0.885,59.143,-6.775,-33.142
-0.046,0.007,0.863,53.772,-7.385,-30.701
-0.055,-0.016,0.850,49.927,-9.033,-28.748
-0.070,-0.062,0.833,45.471,-10.864,-26.306
-0.098,-0.123,0.834,40.894,-13.000,-23.132
-0.126,-0.184,0.843,36.926,-14.526,-18.860
-0.158,-0.230,0.867,32.043,-16.479,-13.245
-0.198,-0.241,0.894,27.527,-18.555,-6.348
-0.237,-0.241,0.915,24.902,-19.714,1.831
-0.271,-0.259,0.937,24.048,-20.691,11.963
-0.301,-0.321,0.962,24.719,-21.118,23.193
-0.341,-0.416,0.993,25.940,-20.325,36.133
-0.396,-0.517,1.017,26.001,-19.226,50.964
-0.461,-0.601,1.045,24.536,-18.250,67.383
-0.534,-0.661,1.046,23.315,-16.724,85.632
-0.601,-0.703,1.031,19.409,-15.076,106.018
-0.651,-0.735,1.003,13.123,-13.672,126.343
-0.688,-0.767,0.970,4.822,-14.221,145.996
-0.719,-0.791,0.942,-3.906,-14.893,164.612
-0.741,-0.785,0.903,-11.108,-13.000,184.326
-0.749,-0.745,0.866,-18.860,-9.827,204.651
-0.756,-0.695,0.849,-25.757,-7.080,224.182
-0.769,-0.630,0.831,-32.104,-4.700,241.333
-0.776,-0.558,0.807,-38.513,-2.930,256.470
-0.774,-0.492,0.796,-43.640,-2.258,270.569
-0.765,-0.430,0.766,-46.875,-1.404,283.630
-0.740,-0.360,0.707,-50.537,-0.549,295.959
-0.711,-0.277,0.627,-52.856,-0.549,307.617
-0.679,-0.204,0.557,-53.772,-1.648,318.726
-0.633,-0.149,0.496,-55.847,-2.808,328.430
-0.593,-0.120,0.442,-59.326,-4.639,336.853
-0.561,-0.108,0.426,-64.087,-6.348,343.933
-0.558,-0.057,0.528,-66.284,-6.958,349.304
-0.593,0.076,0.790,-62.866,-6.409,350.464
-0.721,0.295,0.888,-53.223,-6.287,345.947
-0.763,0.403,0.996,-48.645,-6.958,341.125
-0.820,0.595,1.029,-39.246,-12.024,328.857
-0.811,0.734,0.950,-33.813,-12.451,323.853
-0.776,0.745,0.840,-39.673,-14.771,323.059
-0.735,0.814,0.803,-39.001,-15.625,314.575
-0.718,0.919,0.803,-36.499,-16.724,299.133
-0.711,1.057,0.819,-35.278,-17.883,278.931
-0.725,1.192,0.838,-34.851,-19.897,255.371
-0.722,1.313,0.873,-41.321,-19.470,230.530
-0.684,1.401,0.907,-54.626,-16.785,209.290
-0.710,1.383,0.938,-66.711,-14.221,190.918
-0.689,1.427,0.965,-72.449,-10.498,170.410
-0.663,1.464,0.978,-73.975,-7.874,146.912
-0.631,1.487,0.987,-71.167,-5.676,125.061
-0.583,1.483,0.951,-64.636,-3.601,105.530
-0.535,1.441,0.920,-57.739,-2.197,87.524
-0.498,1.386,0.899,-48.828,-0.488,70.435
-0.464,1.325,0.865,-38.330,1.404,54.993
-0.427,1.261,0.841,-28.259,2.197,40.344
-0.386,1.203,0.802,-19.226,2.808,26.550
-0.347,1.133,0.756,-13.062,2.869,13.733
-0.299,1.076,0.711,-9.338,1.770,2.197
-0.253,1.042,0.680,-6.836,0.061,-8.484
-0.217,1.002,0.658,-4.395,-1.648,-19.165
-0.195,0.965,0.636,-1.953,-3.845,-29.053
-0.176,0.936,0.621,0.183,-6.470,-38.269
-0.166,0.916,0.610,1.343,-9.094,-47.302
-0.160,0.900,0.604,0.671,-12.451,-56.091
-0.158,0.883,0.606,-0.549,-16.235,-64.697
-0.157,0.870,0.619,-1.587,-19.897,-73.425
-0.159,0.862,0.624,-2.197,-23.254,-82.031
-0.165,0.852,0.625,-2.380,-26.978,-90.271
-0.179,0.846,0.629,-2.686,-30.640,-98.206
-0.199,0.849,0.630,-2.991,-34.180,-106.140
-0.226,0.873,0.651,-3.357,-37.720,-114.197
-0.265,0.904,0.682,-2.380,-40.771,-122.375
-0.308,0.922,0.693,1.221,-43.640,-129.822
-0.340,0.912,0.701,5.859,-46.509,-136.414
-0.367,0.882,0.714,9.705,-48.645,-142.883
-0.382,0.857,0.724,10.864,-50.049,-149.597
-0.401,0.853,0.729,10.193,-52.063,-157.227
-0.428,0.860,0.749,8.240,-53.467,-165.527
-0.466,0.874,0.766,5.859,-54.688,-173.828
-0.499,0.886,0.773,3.784,-56.335,-182.129
-0.529,0.907,0.783,1.526,-58.105,-190.735
-0.564,0.936,0.796,0.366,-60.059,-199.890
-0.598,0.956,0.806,1.953,-61.707,-208.740
-0.626,0.950,0.820,6.958,-63.232,-216.797
-0.660,0.917,0.843,13.916,-64.209,-224.365
-0.691,0.871,0.856,20.264,-64.575,-231.201
-0.720,0.832,0.860,25.146,-65.186,-237.915
-0.748,0.798,0.859,28.748,-65.735,-244.873
-0.781,0.753,0.869,31.738,-66.101,-252.014
-0.814,0.682,0.891,35.889,-65.552,-258.057
-0.846,0.579,0.933,41.321,-63.904,-261.902
-0.873,0.467,0.959,47.302,-61.218,-263.916
-0.885,0.372,0.951,52.856,-58.350,-264.771
-0.879,0.316,0.916,57.129,-55.542,-264.709
-0.867,0.292,0.860,60.791,-53.589,-264.160
-0.855,0.270,0.811,64.758,-52.063,-263.306

-0.301,-0.321,0.962,24.719,-21.118,23.193
-0.341,-0.416,0.993,25.940,-20.325,36.133
-0.396,-0.517,1.017,26.001,-19.226,50.964
-0.461,-0.601,1.045,24.536,-18.250,67.383
-0.534,-0.661,1.046,23.315,-16.724,85.632
-0.601,-0.703,1.031,19.409,-15.076,106.018
-0.275,0.926,0.692,-6.287,-35.583,-117.676
-0.324,0.928,0.720,-3.601,-39.063,-126.648
-0.370,0.909,0.734,-0.732,-42.297,-134.827
-0.407,0.882,0.745,2.441,-45.166,-142.212
-0.432,0.851,0.758,4.517,-47.729,-149.170
-0.449,0.823,0.761,5.737,-49.683,-155.884
-0.460,0.797,0.755,5.554,-52.368,-162.231
-0.472,0.772,0.747,5.249,-54.932,-168.518
-0.484,0.747,0.740,5.310,-57.495,-175.049
-0.497,0.731,0.735,5.127,-59.937,-181.824
-0.516,0.720,0.746,4.517,-62.622,-189.148
-0.543,0.712,0.751,4.761,-65.125,-196.106
-0.573,0.698,0.759,6.226,-67.688,-202.515
-0.607,0.687,0.774,9.216,-70.313,-208.252
-0.634,0.672,0.774,13.672,-72.876,-213.562
-0.654,0.652,0.780,18.494,-75.378,-218.506
-0.674,0.625,0.795,24.048,-76.965,-223.511
-0.697,0.580,0.825,30.884,-77.942,-228.149
-0.719,0.519,0.846,38.330,-78.552,-231.873
-0.736,0.458,0.851,45.898,-79.041,-234.924
-0.754,0.385,0.852,51.392,-79.407,-237.183
-0.770,0.314,0.888,53.833,-78.613,-238.403
-0.790,0.258,0.915,57.556,-77.576,-238.647
-0.805,0.218,0.927,61.829,-75.806,-237.671
-0.821,0.146,0.947,66.895,-72.815,-235.657
-0.816,0.037,0.968,72.266,-67.932,-232.361
-0.809,-0.073,0.983,77.637,-63.354,-227.539
-0.783,-0.197,1.008,84.656,-57.861,-221.375
-0.774,-0.263,1.000,90.332,-53.345,-214.111
-0.732,-0.255,0.975,95.032,-46.875,-204.468
-0.737,-0.268,0.970,93.262,-41.992,-195.374
-0.768,-0.362,0.981,89.111,-40.894,-185.608
-0.829,-0.450,0.964,85.327,-39.490,-170.898
-0.840,-0.560,0.965,87.524,-32.593,-152.893
-0.858,-0.679,0.952,87.280,-26.489,-132.935
-0.875,-0.794,0.950,85.815,-20.569,-112.061
-0.866,-0.944,0.940,82.581,-13.794,-90.515
-0.812,-1.064,0.936,72.510,-8.606,-67.871
-0.758,-1.163,0.961,58.472,-4.456,-44.983
-0.717,-1.213,0.987,39.185,-0.549,-24.414
-0.696,-1.197,0.989,18.555,3.235,-5.493
-0.691,-1.133,0.952,0.610,5.981,12.329
-0.687,-1.056,0.918,-15.625,7.812,29.724
-0.669,-0.983,0.886,-29.907,9.521,46.631
-0.651,-0.900,0.844,-41.626,11.658,63.843
-0.639,-0.845,0.816,-51.636,12.817,81.665
-0.638,-0.794,0.808,-60.486,14.465,100.281
-0.659,-0.722,0.821,-65.186,17.151,119.568
-0.677,-0.642,0.822,-65.247,21.484,139.221
-0.666,-0.577,0.805,-64.819,23.865,157.898
-0.657,-0.535,0.781,-68.176,22.034,174.622
-0.646,-0.470,0.739,-70.129,21.240,189.880
-0.653,-0.373,0.694,-71.045,21.362,203.491
-0.668,-0.270,0.657,-72.021,20.081,215.759
-0.678,-0.180,0.637,-72.693,18.799,227.112
-0.702,-0.097,0.654,-71.899,18.250,237.366
-0.742,-0.018,0.724,-69.458,19.165,246.704
-0.799,0.083,0.785,-64.941,21.240,255.066
-0.851,0.186,0.822,-59.021,22.949,262.512
-0.888,0.237,0.832,-58.533,22.949,268.555
-0.885,0.290,0.762,-62.988,22.888,273.132
-0.862,0.287,0.701,-76.904,22.827,274.963
-0.826,0.302,0.639,-100.159,24.353,274.475
-0.789,0.421,0.668,-125.183,27.222,271.240
-0.816,0.649,0.719,-140.991,32.837,262.817
-0.857,0.799,0.775,-142.151,40.344,252.991
-0.849,0.885,0.769,-127.258,46.509,245.300
-0.795,0.917,0.796,-109.985,54.077,242.798
-0.746,0.918,0.829,-95.093,60.852,240.295
-0.709,0.920,0.812,-83.130,65.796,237.183
-0.671,0.932,0.804,-75.745,68.604,232.056
-0.640,0.994,0.807,-70.435,69.580,224.609
-0.610,1.071,0.788,-65.308,70.435,216.370
-0.581,1.130,0.754,-59.692,68.420,208.496
-0.550,1.194,0.690,-52.856,65.735,200.378
-0.529,1.245,0.648,-47.180,63.721,191.162
-0.503,1.300,0.603,-43.213,61.890,179.565
-0.478,1.320,0.567,-42.603,58.533,165.771
-0.444,1.339,0.536,-45.532,55.054,151.001
-0.412,1.347,0.532,-48.950,52.185,135.437
-0.377,1.363,0.509,-49.927,50.049,119.385
-0.355,1.385,0.512,-48.828,47.180,102.722
-0.334,1.396,0.497,-44.556,43.945,85.693
-0.300,1.402,0.474,-39.490,39.917,70.007
-0.257,1.404,0.441,-31.860,34.973,55.664
-0.212,1.383,0.410,-23.193,29.663,41.992
-0.170,1.365,0.378,-16.052,24.048,28.259
-0.133,1.355,0.344,-10.132,18.250,14.465
-0.104,1.352,0.316,-7.507,11.841,0.671
-0.078,1.355,0.299,-6.836,4.822,-12.939
-0.070,1.353,0.324,-8.118,-3.418,-27.222
-0.072,1.331,0.324,-8.545,-11.658,-41.138
-0.087,1.291,0.342,-5.554,-18.677,-55.237
