aX,aY,aZ,gX,gY,gZ
-0.367,0.019,0.831,16.235,-11.841,-5.310
-0.367,0.041,0.831,18.860,-13.184,-5.371
-0.368,0.062,0.823,23.682,-15.137,-5.493
-0.367,0.075,0.816,28.809,-17.151,-5.920
-0.384,0.101,0.830,34.912,-18.982,-6.653
-0.407,0.102,0.843,41.321,-20.264,-7.507
-0.414,0.067,0.855,44.739,-21.179,-8.179
-0.407,0.033,0.870,45.471,-21.240,-8.850
-0.408,0.014,0.863,42.664,-21.057,-9.827
-0.414,-0.008,0.845,37.598,-20.813,-10.620
-0.423,-0.041,0.827,32.104,-20.386,-11.108
-0.422,-0.073,0.817,27.100,-19.836,-11.475
-0.426,-0.096,0.840,23.193,-18.738,-11.353
-0.431,-0.118,0.877,19.470,-17.151,-10.681
-0.444,-0.142,0.900,15.991,-14.893,-9.644
-0.458,-0.151,0.899,14.282,-12.939,-8.484
-0.449,-0.150,0.890,13.306,-11.414,-7.324
-0.437,-0.142,0.872,12.024,-9.949,-6.470
-0.423,-0.146,0.846,10.376,-8.911,-5.920
-0.409,-0.137,0.837,8.606,-8.850,-5.554
-0.393,-0.120,0.828,7.141,-9.521,-5.859
-0.387,-0.103,0.829,6.897,-10.803,-6.714
-0.377,-0.104,0.863,6.836,-12.817,-8.118
-0.371,-0.121,0.876,4.395,-14.893,-9.460
-0.389,-0.134,0.864,-3.296,-16.235,-10.254
-0.401,-0.098,0.866,-14.099,-17.700,-10.864
-0.409,-0.051,0.885,-32.104,-18.555,-13.306
-0.443,0.020,0.903,-62.073,-17.944,-18.311
-0.495,0.092,0.917,-103.027,-17.456,-26.917
-0.497,0.103,0.917,-155.212,-18.066,-38.208
-0.520,0.116,0.834,-199.768,-20.935,-50.049
-0.575,0.143,0.790,-223.328,-25.574,-59.326
-0.561,0.390,0.755,-201.538,-32.349,-64.697
-0.532,0.333,0.782,-139.954,-39.856,-64.697
-0.557,0.109,0.839,-93.140,-46.814,-58.594
-0.548,0.009,0.962,-60.852,-52.551,-49.500
-0.538,-0.006,1.068,-48.157,-55.054,-39.978
-0.582,0.035,1.192,-63.354,-55.847,-33.569
-0.605,0.190,1.364,-94.666,-54.382,-34.302
-0.623,0.278,1.370,-146.851,-49.561,-37.292
-0.685,0.128,1.538,-205.322,-45.166,-39.917
-0.724,0.231,1.712,-228.271,-38.269,-42.419
-0.609,-0.015,1.719,-256.226,-27.344,-36.743
-0.532,-0.023,1.769,-269.043,-16.113,-22.888
-0.284,-0.141,1.676,-259.888,0.061,-22.522
-0.026,-0.460,1.235,-241.577,22.339,-21.179
0.011,-0.488,0.867,-228.760,28.809,-10.010
-0.184,-0.334,0.693,-215.210,18.982,-6.958
-0.271,-0.196,0.432,-184.570,9.521,-13.123
-0.317,-0.483,0.015,-160.217,-0.244,-18.372
-0.315,-0.243,-0.317,-150.024,-18.372,-11.597
-0.469,0.080,-0.461,-138.306,-45.837,-7.019
-0.581,0.517,-0.405,-141.113,-60.364,0.366
-0.667,0.725,-0.266,-139.099,-65.063,5.859
-0.709,0.940,-0.117,-131.226,-61.279,9.949
-0.670,0.968,0.034,-121.155,-47.546,12.024
-0.731,0.952,0.093,-112.305,-36.194,17.456
-0.770,1.016,0.102,-108.459,-26.917,19.104
-0.738,1.102,0.118,-105.896,-15.808,20.935
-0.710,1.152,0.135,-89.050,-10.803,16.663
-0.663,1.120,0.154,-67.810,-4.761,10.864
-0.645,1.070,0.163,-44.128,0.122,7.141
-0.638,1.024,0.167,-23.254,2.686,5.859
-0.615,0.994,0.224,-4.211,5.859,5.249
-0.636,1.005,0.280,15.564,7.507,3.174
-0.629,1.035,0.328,39.673,10.437,-0.732
-0.612,1.083,0.347,66.772,15.442,-4.089
-0.613,1.196,0.348,96.008,19.470,-7.324
-0.610,1.267,0.308,126.648,22.766,-11.841
-0.588,1.366,0.275,161.316,26.001,-18.250
-0.587,1.388,0.249,205.627,29.297,-27.588
-0.566,1.352,0.218,253.540,27.222,-38.696
-0.526,1.231,0.194,286.743,19.226,-52.673
-0.515,1.094,0.140,315.674,9.277,-61.584
-0.439,0.968,0.138,342.224,0.916,-63.293
-0.447,0.722,0.072,360.596,-8.850,-64.453
-0.426,0.508,0.050,373.901,-21.729,-52.429
-0.397,0.260,0.088,387.756,-31.555,-32.593
-0.405,-0.091,0.136,406.067,-37.170,-11.169
-0.381,-0.379,0.207,392.944,-42.236,13.000
-0.386,-0.671,0.327,383.728,-40.649,40.344
-0.390,-1.078,0.492,355.774,-34.302,63.416
-0.085,-1.472,0.727,322.144,-17.639,95.398
-0.557,-1.629,0.839,288.513,18.555,142.273
-1.011,-1.014,0.515,248.840,20.996,139.099
-0.716,-0.559,0.688,180.420,11.475,78.674
-0.335,-0.095,0.695,149.292,31.372,47.791
-0.280,0.129,0.743,145.020,42.419,43.945
-0.284,-0.169,0.867,123.108,38.025,42.053
-0.410,-0.483,1.030,85.266,26.733,41.748
-0.429,-0.456,1.082,57.434,18.250,38.391
-0.389,-0.239,1.139,21.301,15.869,32.166
-0.282,-0.228,1.119,-7.629,16.724,26.489
-0.305,-0.155,1.062,-22.827,19.226,23.132
-0.332,-0.157,1.013,-33.875,18.066,17.334
-0.343,-0.193,0.945,-36.804,13.916,13.000
-0.324,-0.230,0.839,-36.926,8.240,9.277
-0.336,-0.234,0.790,-33.691,1.343,6.470
-0.377,-0.178,0.746,-36.194,-5.676,4.822
-0.417,-0.164,0.728,-40.588,-13.184,1.831
-0.466,-0.200,0.815,-46.997,-19.592,-0.488
-0.512,-0.245,0.914,-50.110,-23.010,-1.953
-0.540,-0.342,0.972,-57.983,-25.208,-2.441
-0.543,-0.397,1.048,-71.899,-25.818,-0.977
-0.582,-0.290,1.142,-84.717,-23.987,-0.488
-0.529,-0.376,1.276,-112.366,-19.592,-3.723
-0.620,-0.504,1.361,-147.766,-13.916,-6.775
-0.685,-0.481,1.357,-179.382,-8.301,-5.432
-0.691,-0.305,1.305,-191.895,-2.075,-5.066
-0.629,-0.082,1.253,-191.895,1.221,-5.920
-0.584,0.106,1.197,-190.735,1.770,-7.874
-0.516,0.139,1.134,-198.181,1.770,-8.667
-0.491,0.110,1.163,-217.773,-0.366,-8.545
-0.479,0.160,1.199,-228.882,0.305,-9.399
-0.465,0.181,1.136,-241.455,5.432,-14.160
-0.352,0.231,1.203,-243.652,10.193,-16.663
-0.236,0.157,1.192,-236.267,16.174,-24.780
-0.143,-0.260,0.928,-230.164,24.048,-29.175
0.047,-0.676,0.427,-239.502,21.790,-15.991

-0.368,0.062,0.823,23.682,-15.137,-5.493
-0.367,0.075,0.816,28.809,-17.151,-5.920
-0.384,0.101,0.830,34.912,-18.982,-6.653
-0.407,0.102,0.843,41.321,-20.264,-7.507
-0.414,0.067,0.855,44.739,-21.179,-8.179
-0.407,0.033,0.870,45.471,-21.240,-8.850
-0.408,0.014,0.863,42.664,-21.057,-9.827
-0.414,-0.008,0.845,37.598,-20.813,-10.620
-0.423,-0.041,0.827,32.104,-20.386,-11.108
-0.422,-0.073,0.817,27.100,-19.836,-11.475
-0.426,-0.096,0.840,23.193,-18.738,-11.353
-0.431,-0.118,0.877,19.470,-17.151,-10.681
-0.444,-0.142,0.900,15.991,-14.893,-9.644
-0.458,-0.151,0.899,14.282,-12.939,-8.484
-0.449,-0.150,0.890,13.306,-11.414,-7.324
-0.437,-0.142,0.872,12.024,-9.949,-6.470
-0.423,-0.146,0.846,10.376,-8.911,-5.920
-0.409,-0.137,0.837,8.606,-8.850,-5.554
-0.393,-0.120,0.828,7.141,-9.521,-5.859
-0.387,-0.103,0.829,6.897,-10.803,-6.714
-0.377,-0.104,0.863,6.836,-12.817,-8.118
-0.371,-0.121,0.876,4.395,-14.893,-9.460
-0.389,-0.134,0.864,-3.296,-16.235,-10.254
-0.401,-0.098,0.866,-14.099,-17.700,-10.864
-0.409,-0.051,0.885,-32.104,-18.555,-13.306
-0.443,0.020,0.903,-62.073,-17.944,-18.311
-0.495,0.092,0.917,-103.027,-17.456,-26.917
-0.497,0.103,0.917,-155.212,-18.066,-38.208
-0.520,0.116,0.834,-199.768,-20.935,-50.049
-0.575,0.143,0.790,-223.328,-25.574,-59.326
-0.561,0.390,0.755,-201.538,-32.349,-64.697
-0.532,0.333,0.782,-139.954,-39.856,-64.697
-0.557,0.109,0.839,-93.140,-46.814,-58.594
-0.548,0.009,0.962,-60.852,-52.551,-49.500
-0.538,-0.006,1.068,-48.157,-55.054,-39.978
-0.582,0.035,1.192,-63.354,-55.847,-33.569
-0.605,0.190,1.364,-94.666,-54.382,-34.302
-0.623,0.278,1.370,-146.851,-49.561,-37.292
-0.486,-1.091,0.532,433.228,-116.089,36.316
-0.595,-1.453,0.624,431.946,-96.680,59.204
-0.632,-1.757,0.855,392.395,-71.289,76.050
-0.637,-1.883,0.957,297.913,-35.767,86.548
-0.645,-1.445,0.895,193.420,-11.292,84.290
-0.619,-0.673,0.909,131.042,2.014,64.392
-0.548,0.008,0.939,113.342,19.836,42.664
-0.479,0.211,1.036,122.681,27.527,30.334
-0.506,-0.060,1.227,109.741,24.048,22.888
-0.555,-0.252,1.297,101.318,18.738,20.264
-0.589,-0.301,1.203,105.408,14.893,26.184
-0.551,-0.191,1.081,83.923,12.878,28.137
-0.474,-0.019,1.007,53.406,12.390,26.062
-0.436,-0.034,0.880,28.442,13.855,19.653
-0.447,-0.065,0.759,12.756,14.771,12.146
-0.450,-0.108,0.661,7.324,14.404,5.798
-0.466,-0.168,0.642,5.615,11.902,0.549
-0.481,-0.216,0.670,2.930,6.836,-2.014
-0.497,-0.219,0.755,-1.282,2.136,-2.930
-0.519,-0.237,0.811,-6.775,-1.526,-3.540
-0.527,-0.279,0.830,-11.108,-5.737,-3.540
-0.556,-0.385,0.853,-15.198,-9.094,-2.380
-0.579,-0.430,0.846,-23.071,-10.315,-0.244
-0.584,-0.388,0.870,-28.992,-10.254,0.977
-0.594,-0.350,0.937,-33.752,-10.376,0.488
-0.605,-0.369,1.019,-42.114,-9.949,-0.427
-0.616,-0.362,1.084,-55.054,-8.362,-1.038
-0.627,-0.368,1.161,-78.186,-5.005,-2.930
-0.598,-0.281,1.193,-106.018,-0.916,-5.859
-0.562,-0.151,1.258,-127.625,1.953,-8.179
-0.585,-0.166,1.283,-155.701,6.531,-11.414
-0.598,-0.165,1.237,-188.293,11.047,-12.329
-0.589,-0.121,1.243,-211.609,11.902,-10.254
-0.605,-0.166,1.304,-222.168,13.306,-7.324
-0.536,-0.131,1.294,-243.958,19.714,-5.920
-0.505,-0.160,1.244,-274.170,28.625,-14.709
-0.439,-0.211,1.240,-299.805,39.429,-24.048
-0.334,-0.119,0.997,-287.048,49.988,-27.100
-0.300,-0.087,0.933,-259.216,57.861,-30.212
-0.149,-0.103,0.738,-235.535,62.500,-32.043
-0.042,-0.255,0.397,-218.933,64.514,-27.893
-0.002,-0.439,0.190,-218.872,51.758,-16.174
-0.023,-0.407,0.159,-224.121,37.354,5.371
-0.293,-0.307,0.210,-225.891,22.095,22.583
-0.462,-0.178,0.177,-219.543,5.249,22.949
-0.589,-0.016,0.223,-230.896,-7.385,25.879
-0.607,0.093,0.326,-226.868,-14.221,30.273
-0.535,0.345,0.412,-219.971,-14.343,33.325
-0.624,0.450,0.381,-216.919,-15.564,31.250
-0.658,0.581,0.363,-213.318,-18.066,31.372
-0.472,0.840,0.478,-205.322,-13.306,28.625
-0.521,1.135,0.483,-182.190,-7.019,18.555
-0.554,1.313,0.463,-151.428,-5.005,13.855
-0.602,1.390,0.391,-113.098,-1.953,8.789
-0.589,1.433,0.360,-74.219,1.404,2.258
-0.563,1.380,0.346,-36.560,3.906,-3.540
-0.533,1.272,0.352,-6.104,4.333,-6.165
-0.547,1.142,0.382,18.494,-0.183,-5.066
-0.593,0.964,0.386,38.940,-6.165,-3.052
-0.631,0.878,0.403,51.941,-12.878,-5.371
-0.654,0.878,0.428,63.660,-17.090,-10.681
-0.648,0.885,0.475,79.041,-13.306,-14.893
-0.640,0.919,0.474,98.022,-7.263,-18.127
-0.650,1.012,0.481,119.995,-2.625,-22.095
-0.652,1.128,0.436,149.170,0.488,-27.832
-0.638,1.161,0.368,187.439,-1.221,-36.499
-0.600,1.108,0.318,229.126,-6.042,-48.767
-0.556,0.968,0.351,251.587,-9.949,-60.608
-0.542,0.758,0.376,268.372,-14.343,-63.782
-0.507,0.578,0.348,279.602,-20.569,-62.439
-0.455,0.472,0.329,293.701,-26.306,-61.340
-0.402,0.265,0.233,312.988,-30.273,-57.495
-0.400,-0.093,0.308,307.373,-40.527,-51.270
-0.281,-0.387,0.166,311.890,-51.147,-35.706
-0.236,-0.577,0.330,301.270,-61.768,-14.526
-0.288,-0.829,0.433,300.476,-65.186,5.127
-0.295,-0.780,0.635,313.049,-59.814,25.146
-0.275,-0.965,0.656,332.031,-43.884,35.217
-0.275,-1.182,0.769,327.026,-32.593,40.161
-0.275,-1.179,0.987,297.729,-26.184,46.814
-0.380,-0.975,1.128,254.578,-18.188,47.546

-0.304,-0.279,1.125,-326.538,53.040,-14.465
-0.237,-0.456,0.968,-326.660,62.073,-12.268
-0.115,-0.765,0.675,-345.154,65.369,-5.981
-0.046,-0.914,0.341,-351.501,64.453,10.986
-0.102,-0.856,0.072,-339.233,52.307,29.480
-0.290,-0.582,-0.007,-308.411,34.790,39.246
-0.444,-0.221,0.121,-279.907,17.151,38.391
-0.543,0.031,0.211,-267.029,8.362,40.039
-0.604,0.223,0.292,-270.691,1.648,49.683
-0.693,0.476,0.190,-266.785,-10.010,56.702
-0.799,0.806,0.098,-257.996,-21.912,52.551
-0.887,1.056,0.072,-245.972,-27.466,42.542
-0.866,1.169,0.053,-228.333,-28.748,34.180
-0.710,1.300,0.199,-205.261,-17.944,27.466
-0.687,1.257,0.267,-173.279,-2.930,15.198
-0.631,1.200,0.316,-145.325,7.019,13.367
-0.599,1.121,0.356,-121.399,12.817,11.719
-0.542,1.070,0.372,-99.731,17.029,9.155
-0.504,1.023,0.375,-79.407,18.250,7.324
-0.491,1.023,0.386,-59.143,17.334,5.554
-0.492,1.017,0.384,-36.926,14.832,5.066
-0.487,0.959,0.409,-12.878,13.184,6.897
-0.496,0.975,0.431,8.667,8.606,6.775
-0.510,1.023,0.435,30.090,2.380,3.540
-0.523,1.121,0.399,51.758,-0.488,-0.671
-0.541,1.306,0.335,79.224,-0.305,-8.423
-0.543,1.427,0.263,114.014,1.404,-19.653
-0.497,1.459,0.187,154.541,1.953,-31.494
-0.468,1.462,0.126,208.496,-1.282,-41.626
-0.439,1.414,0.090,249.817,-7.629,-51.208
-0.424,1.321,0.050,291.870,-17.090,-57.983
-0.439,1.156,0.056,328.308,-29.968,-64.392
-0.410,0.947,0.060,359.253,-46.875,-69.275
-0.412,0.797,0.080,399.048,-63.965,-69.885
-0.468,0.418,0.125,429.504,-80.261,-70.068
-0.497,0.168,0.105,446.533,-94.116,-60.303
-0.550,-0.174,0.307,448.669,-106.506,-45.471
-0.588,-0.415,0.390,460.388,-111.145,-25.391
-0.657,-0.783,0.497,464.966,-105.835,-6.042
-0.617,-1.307,0.617,428.406,-93.201,19.287
-0.559,-1.729,0.797,386.597,-69.824,47.791
-0.614,-1.836,0.913,306.763,-40.771,70.374
-0.675,-1.516,0.921,209.656,-12.512,73.547
-0.613,-0.952,0.852,140.076,10.254,55.359
-0.575,-0.434,0.785,86.670,25.208,35.828
-0.482,-0.075,0.766,53.589,26.550,22.461
-0.463,0.038,0.830,40.283,22.400,12.085
-0.481,0.152,0.900,51.025,18.066,5.432
-0.482,0.161,0.894,71.411,14.343,0.244
-0.483,0.065,1.014,78.979,9.277,-2.258
-0.450,-0.006,1.045,75.928,7.568,-0.793
-0.439,-0.035,1.010,80.383,3.418,3.174
-0.426,-0.026,0.898,69.397,1.587,2.991
-0.416,0.016,0.827,56.519,1.404,0.244
-0.415,0.021,0.789,43.945,2.075,-3.906
-0.428,-0.049,0.772,36.011,1.282,-7.324
-0.443,-0.165,0.782,34.241,-2.136,-9.338
-0.488,-0.282,0.820,31.433,-5.188,-8.057
-0.531,-0.352,0.774,25.146,-4.578,-6.592
-0.540,-0.376,0.705,20.996,-3.418,-6.531
-0.536,-0.402,0.701,16.235,-5.127,-6.226
-0.530,-0.460,0.748,9.277,-7.263,-4.883
-0.538,-0.490,0.810,2.075,-7.874,-3.540
-0.551,-0.506,0.864,-7.080,-6.836,-2.319
-0.545,-0.536,0.920,-20.142,-4.822,-0.732
-0.530,-0.531,0.916,-37.476,-2.869,2.014
-0.531,-0.500,0.916,-54.688,-1.709,4.822
-0.521,-0.462,0.919,-70.923,-0.916,6.836
-0.506,-0.433,0.906,-90.332,0.732,7.629
-0.521,-0.420,0.895,-112.122,1.465,8.423
-0.518,-0.380,0.912,-131.104,1.404,10.071
-0.524,-0.372,0.951,-150.146,1.648,10.254
-0.584,-0.362,1.043,-176.025,4.456,9.521
-0.658,-0.270,1.113,-204.224,9.583,7.935
-0.707,-0.188,1.146,-231.018,16.113,3.601
-0.743,-0.078,1.269,-259.094,24.475,-3.296
-0.678,0.053,1.425,-280.334,33.875,-12.878
-0.589,0.116,1.382,-294.006,45.959,-21.362
-0.511,0.184,1.401,-287.476,50.293,-18.066
-0.372,0.029,1.139,-281.982,51.514,-6.775
-0.324,0.051,0.959,-270.813,50.598,-0.061
-0.154,0.027,0.882,-252.747,47.668,-1.526
-0.149,-0.232,0.569,-237.488,46.448,8.057
-0.292,-0.296,0.253,-227.234,28.015,14.954
-0.266,-0.184,0.207,-200.562,16.113,15.991
-0.339,-0.016,0.244,-172.729,9.766,16.907
-0.480,0.030,0.231,-152.588,-2.380,16.113
-0.549,0.043,0.312,-148.315,-11.169,18.860
-0.584,0.321,0.437,-143.188,-11.597,24.475
-0.625,0.531,0.523,-137.024,-8.301,24.109
-0.605,0.605,0.620,-130.371,-4.211,18.982
-0.544,0.530,0.634,-119.385,5.005,19.592
-0.525,0.470,0.584,-119.568,9.521,21.057
-0.517,0.542,0.517,-125.916,10.559,20.081
-0.527,0.748,0.420,-126.343,10.498,17.883
-0.561,0.917,0.403,-114.807,8.728,13.306
-0.551,0.984,0.371,-91.492,9.949,8.972
-0.520,1.096,0.352,-63.843,12.085,5.127
-0.503,1.261,0.358,-28.320,12.268,0.183
-0.489,1.363,0.366,13.733,12.085,-4.272
-0.496,1.378,0.374,60.913,10.132,-9.460
-0.488,1.311,0.362,104.675,7.019,-16.418
-0.464,1.226,0.332,142.090,2.014,-23.254
-0.450,1.175,0.285,184.753,-6.165,-30.640
-0.414,1.119,0.222,219.543,-15.991,-39.856
-0.376,1.129,0.143,249.390,-24.841,-47.974
-0.375,1.131,0.121,294.434,-35.522,-55.420
-0.356,1.054,0.061,345.947,-48.157,-62.195
-0.364,0.813,0.041,382.507,-64.819,-65.125
-0.398,0.391,0.063,395.325,-86.304,-61.462
-0.443,0.110,0.181,409.790,-103.943,-52.368
-0.509,-0.418,0.231,424.927,-115.784,-37.903
-0.539,-0.849,0.363,460.937,-113.770,-6.165
-0.565,-1.218,0.518,476.318,-100.159,19.348
-0.572,-1.531,0.728,453.613,-78.674,37.659
-0.506,-1.843,0.903,379.150,-50.781,57.190
-0.450,-2.022,1.037,269.897,-18.921,77.820
-0.883,-1.657,0.959,153.137,8.118,91.125
-0.795,-1.052,0.676,53.711,11.780,63.293

-0.866,1.169,0.053,-228.333,-28.748,34.180
-0.710,1.300,0.199,-205.261,-17.944,27.466
-0.687,1.257,0.267,-173.279,-2.930,15.198
-0.631,1.200,0.316,-145.325,7.019,13.367
-0.599,1.121,0.356,-121.399,12.817,11.719
-0.542,1.070,0.372,-99.731,17.029,9.155
-0.504,1.023,0.375,-79.407,18.250,7.324
-0.491,1.023,0.386,-59.143,17.334,5.554
-0.492,1.017,0.384,-36.926,14.832,5.066
-0.487,0.959,0.409,-12.878,13.184,6.897
-0.496,0.975,0.431,8.667,8.606,6.775
-0.510,1.023,0.435,30.090,2.380,3.540
-0.523,1.121,0.399,51.758,-0.488,-0.671
-0.541,1.306,0.335,79.224,-0.305,-8.423
-0.543,1.427,0.263,114.014,1.404,-19.653
-0.497,1.459,0.187,154.541,1.953,-31.494
-0.468,1.462,0.126,208.496,-1.282,-41.626
-0.439,1.414,0.090,249.817,-7.629,-51.208
-0.424,1.321,0.050,291.870,-17.090,-57.983
-0.439,1.156,0.056,328.308,-29.968,-64.392
-0.410,0.947,0.060,359.253,-46.875,-69.275
-0.412,0.797,0.080,399.048,-63.965,-69.885
-0.468,0.418,0.125,429.504,-80.261,-70.068
-0.497,0.168,0.105,446.533,-94.116,-60.303
-0.550,-0.174,0.307,448.669,-106.506,-45.471
-0.588,-0.415,0.390,460.388,-111.145,-25.391
-0.657,-0.783,0.497,464.966,-105.835,-6.042
-0.617,-1.307,0.617,428.406,-93.201,19.287
-0.633,-0.163,0.840,-59.937,-19.653,4.883
-0.651,-0.200,0.969,-68.909,-16.663,7.874
-0.641,-0.175,1.111,-82.275,-9.399,8.545
-0.628,-0.037,1.209,-100.098,-2.136,7.507
-0.573,-0.030,1.386,-116.150,4.211,5.371
-0.573,-0.121,1.388,-142.822,6.836,4.517
-0.620,-0.057,1.348,-161.316,3.174,7.141
-0.629,0.016,1.298,-166.992,3.357,9.644
-0.563,0.201,1.195,-184.937,10.132,4.883
-0.492,0.456,1.068,-193.665,19.226,-5.371
-0.466,0.543,1.103,-213.562,26.428,-12.695
-0.504,0.535,1.315,-221.375,30.640,-16.785
-0.519,0.304,1.537,-196.411,40.955,-21.912
-0.483,0.008,1.677,-181.824,58.289,-25.208
-0.370,-0.442,1.440,-186.707,72.144,-20.386
-0.173,-1.049,1.071,-214.233,77.515,-5.920
-0.153,-1.304,0.506,-246.582,75.378,16.541
-0.082,-1.259,0.085,-272.583,64.453,33.386
-0.270,-1.085,-0.187,-294.800,50.293,50.232
-0.459,-0.695,-0.125,-322.083,27.405,60.852
-0.668,-0.226,-0.065,-332.947,8.972,55.054
-0.804,0.330,-0.009,-323.853,-3.784,41.809
-0.822,0.610,0.080,-291.382,-7.446,33.691
-0.827,0.744,0.130,-263.855,-3.540,34.790
-0.826,0.951,0.087,-243.958,2.869,34.485
-0.762,1.107,0.059,-219.543,8.850,33.264
-0.740,1.269,0.039,-192.017,7.568,25.757
-0.706,1.329,0.012,-162.170,5.676,16.174
-0.632,1.320,0.030,-130.127,6.165,7.446
-0.553,1.273,0.100,-98.328,10.376,3.357
-0.493,1.209,0.162,-67.627,13.428,3.174
-0.465,1.216,0.200,-39.978,13.000,3.296
-0.454,1.172,0.244,-10.376,10.559,3.113
-0.452,1.108,0.299,17.029,8.484,2.441
-0.421,1.053,0.333,38.513,6.287,1.343
-0.404,1.027,0.397,52.185,3.906,0.488
-0.399,1.086,0.448,67.383,-1.526,-2.808
-0.418,1.144,0.444,89.417,-7.324,-7.263
-0.435,1.193,0.449,113.892,-9.277,-13.672
-0.453,1.204,0.460,136.536,-9.583,-20.935
-0.496,1.157,0.444,160.828,-11.536,-27.344
-0.515,1.135,0.417,191.406,-13.367,-32.959
-0.539,1.056,0.384,213.135,-14.832,-39.917
-0.558,1.003,0.359,231.873,-18.127,-48.035
-0.558,0.931,0.314,249.023,-23.560,-57.068
-0.532,0.941,0.290,264.099,-29.602,-65.735
-0.523,0.879,0.276,281.738,-35.217,-74.890
-0.492,0.738,0.249,296.326,-40.100,-79.834
-0.465,0.587,0.223,317.810,-47.607,-79.285
-0.474,0.312,0.229,349.670,-58.655,-73.059
-0.453,-0.162,0.195,365.906,-68.298,-58.655
-0.470,-0.342,0.405,361.145,-78.918,-39.734
-0.468,-0.558,0.399,367.187,-82.764,-20.203
-0.461,-0.852,0.518,359.924,-80.933,-1.648
-0.477,-1.156,0.654,344.849,-73.914,17.090
-0.465,-1.283,0.720,308.105,-57.800,36.560
-0.473,-1.237,0.807,254.395,-38.635,46.997
-0.526,-1.096,0.817,183.289,-16.602,47.668
-0.538,-0.750,0.713,118.652,0.061,40.527
-0.440,-0.374,0.721,68.115,5.188,28.015
-0.412,-0.117,0.870,42.725,3.906,20.691
-0.454,-0.086,0.980,41.138,3.540,15.564
-0.493,0.034,1.117,50.842,2.380,12.878
-0.510,0.023,1.136,55.420,2.075,7.629
-0.548,-0.002,1.211,57.129,-1.221,4.333
-0.497,-0.062,1.108,51.697,-2.502,2.808
-0.490,-0.071,1.074,49.438,-3.967,3.784
-0.495,-0.057,0.973,38.513,-4.700,3.418
-0.503,-0.053,0.903,21.973,-4.089,0.549
-0.495,-0.117,0.830,1.465,-2.930,-4.028
-0.477,-0.160,0.733,-20.203,-3.479,-7.874
-0.460,-0.132,0.668,-33.386,-4.456,-10.925
-0.467,-0.088,0.689,-42.297,-5.981,-12.390
-0.482,-0.082,0.747,-48.584,-7.935,-12.329
-0.503,-0.108,0.805,-51.392,-9.888,-11.047
-0.502,-0.114,0.860,-50.781,-10.498,-8.789
-0.405,-0.143,0.833,-44.556,-12.085,-4.150
-0.440,-0.132,1.000,-56.152,-8.911,-3.296
-0.478,-0.124,1.130,-89.844,-2.258,-4.456
-0.522,-0.158,1.247,-143.738,7.751,-6.775
-0.627,-0.289,1.412,-217.651,17.151,-7.202
-0.715,-0.234,1.440,-267.090,25.574,-1.404
-0.728,-0.188,1.600,-304.016,28.870,1.770
-0.710,-0.156,1.560,-318.115,36.987,-0.916
-0.628,-0.102,1.294,-322.510,48.462,-4.639
-0.447,0.113,0.795,-308.350,51.025,-7.263
-0.242,0.451,0.436,-264.160,46.143,-12.268
-0.233,0.599,0.673,-229.858,37.781,-16.357
-0.385,0.418,1.223,-218.445,33.630,-16.907
-0.428,-0.094,1.248,-201.111,39.063,-13.062
-0.358,-0.726,1.002,-215.820,38.635,-1.770

-0.541,1.306,0.335,79.224,-0.305,-8.423
-0.543,1.427,0.263,114.014,1.404,-19.653
-0.497,1.459,0.187,154.541,1.953,-31.494
-0.468,1.462,0.126,208.496,-1.282,-41.626
-0.439,1.414,0.090,249.817,-7.629,-51.208
-0.424,1.321,0.050,291.870,-17.090,-57.983
-0.439,1.156,0.056,328.308,-29.968,-64.392
-0.410,0.947,0.060,359.253,-46.875,-69.275
-0.412,0.797,0.080,399.048,-63.965,-69.885
-0.468,0.418,0.125,429.504,-80.261,-70.068
-0.497,0.168,0.105,446.533,-94.116,-60.303
-0.550,-0.174,0.307,448.669,-106.506,-45.471
-0.588,-0.415,0.390,460.388,-111.145,-25.391
-0.657,-0.783,0.497,464.966,-105.835,-6.042
-0.617,-1.307,0.617,428.406,-93.201,19.287
-0.633,-0.163,0.840,-59.937,-19.653,4.883
-0.651,-0.200,0.969,-68.909,-16.663,7.874
-0.641,-0.175,1.111,-82.275,-9.399,8.545
-0.628,-0.037,1.209,-100.098,-2.136,7.507
-0.573,-0.030,1.386,-116.150,4.211,5.371
-0.573,-0.121,1.388,-142.822,6.836,4.517
-0.620,-0.057,1.348,-161.316,3.174,7.141
-0.629,0.016,1.298,-166.992,3.357,9.644
-0.563,0.201,1.195,-184.937,10.132,4.883
-0.492,0.456,1.068,-193.665,19.226,-5.371
-0.466,0.543,1.103,-213.562,26.428,-12.695
-0.504,0.535,1.315,-221.375,30.640,-16.785
-0.471,1.268,0.074,222.717,-7.629,-48.157
-0.382,1.292,-0.028,257.019,-14.648,-53.467
-0.382,1.209,-0.058,289.612,-23.254,-58.960
-0.352,1.043,-0.049,329.956,-32.532,-60.791
-0.321,0.782,-0.068,361.328,-47.424,-58.655
-0.277,0.642,-0.063,387.512,-64.514,-50.842
-0.293,0.387,-0.069,409.302,-82.886,-44.678
-0.352,0.031,0.157,400.330,-101.929,-37.048
-0.433,-0.255,0.245,442.383,-112.305,-18.982
-0.508,-0.483,0.334,459.839,-117.554,-0.977
-0.578,-0.648,0.531,460.327,-114.319,14.709
-0.649,-0.917,0.629,443.115,-102.966,25.391
-0.680,-1.244,0.765,390.137,-86.548,39.978
-0.690,-1.443,0.825,312.256,-65.430,55.420
-0.702,-1.414,0.814,214.294,-40.344,60.730
-0.669,-1.110,0.833,120.300,-14.954,55.359
-0.641,-0.691,0.825,47.058,5.310,43.457
-0.581,-0.273,0.795,-3.052,16.846,33.142
-0.594,0.057,0.814,-23.437,18.372,27.710
-0.639,0.271,0.839,-26.733,16.663,20.386
-0.655,0.439,0.936,-11.841,10.498,11.780
-0.637,0.492,1.062,29.602,3.296,5.432
-0.627,0.331,1.169,65.308,-0.244,3.418
-0.611,0.082,1.198,76.904,-3.540,4.028
-0.589,-0.059,1.179,75.195,-5.615,7.935
-0.535,-0.054,0.967,55.481,-2.686,9.155
-0.526,-0.005,0.917,42.236,-1.343,10.559
-0.514,0.003,0.834,26.123,1.831,8.423
-0.521,-0.039,0.813,8.850,4.517,3.723
-0.516,0.017,0.845,-0.916,6.165,-0.793
-0.501,-0.012,0.827,-11.536,7.935,-6.531
-0.509,-0.029,0.833,-21.790,6.958,-9.888
-0.519,-0.003,0.848,-26.184,5.371,-10.559
-0.529,-0.005,0.849,-29.663,4.456,-10.132
-0.528,0.006,0.861,-32.654,3.357,-9.705
-0.519,0.040,0.903,-34.790,3.296,-9.766
-0.521,0.024,0.949,-43.823,5.859,-10.681
-0.545,-0.004,0.968,-65.186,9.949,-11.902
-0.550,-0.084,1.034,-101.807,13.184,-13.367
-0.543,-0.197,1.091,-140.747,16.052,-13.611
-0.571,-0.271,1.108,-181.885,18.188,-11.902
-0.610,-0.235,1.302,-225.708,20.447,-6.348
-0.681,-0.052,1.520,-266.113,23.560,-1.038
-0.777,0.098,1.758,-304.443,33.386,-3.601
-0.739,-0.013,1.572,-331.909,50.598,-10.315
-0.425,0.038,1.271,-352.722,67.383,-10.498
-0.219,0.057,0.911,-349.609,75.195,-12.451
-0.196,-0.157,0.598,-334.045,67.261,-15.015
-0.208,-0.153,0.286,-290.710,50.354,-11.414
-0.262,-0.565,0.003,-252.991,26.794,-10.681
-0.380,-0.989,-0.068,-268.799,-1.587,-0.916
-0.491,-1.017,-0.096,-294.739,-17.883,18.250
-0.609,-0.605,-0.090,-331.909,-16.663,31.372
-0.704,0.071,0.054,-367.798,-17.456,31.555
-0.738,0.701,0.204,-375.793,-23.865,22.034
-0.811,1.059,0.306,-355.286,-17.944,8.911
-0.870,1.104,0.312,-318.420,-1.160,0.305
-0.834,1.120,0.254,-273.926,17.761,2.197
-0.799,0.992,0.176,-225.403,31.860,12.939
-0.427,1.174,0.149,-197.205,34.424,22.461
-0.365,1.152,0.084,-157.043,43.884,14.160
-0.363,1.097,0.050,-131.897,41.138,15.564
-0.355,1.179,0.045,-115.784,33.630,16.541
-0.371,1.240,0.033,-100.891,27.100,13.977
-0.384,1.332,0.087,-82.214,22.644,13.672
-0.365,1.416,0.152,-60.547,19.348,8.728
-0.361,1.388,0.180,-38.086,14.404,3.784
-0.336,1.305,0.195,-15.259,9.460,3.113
-0.351,1.222,0.207,8.789,4.456,2.869
-0.390,1.124,0.217,30.579,1.099,0.305
-0.415,1.054,0.214,50.781,1.160,-2.258
-0.438,1.060,0.218,74.036,1.831,-4.883
-0.441,1.141,0.188,95.581,-1.831,-7.874
-0.447,1.215,0.165,120.911,-6.409,-12.756
-0.436,1.272,0.146,147.705,-9.521,-18.616
-0.421,1.298,0.097,175.476,-13.794,-24.475
-0.414,1.297,0.055,209.229,-18.677,-28.015
-0.412,1.287,0.024,252.197,-25.085,-31.555
-0.389,1.344,0.009,295.044,-33.997,-37.170
-0.358,1.343,-0.033,345.764,-43.152,-42.236
-0.327,1.267,-0.193,399.902,-52.551,-45.349
-0.312,1.037,-0.078,430.115,-68.787,-50.537
-0.325,0.769,-0.174,482.788,-89.417,-49.133
-0.406,0.388,-0.108,516.113,-113.586,-44.189
-0.502,0.021,-0.054,551.941,-135.864,-33.264
-0.584,-0.264,0.083,592.651,-148.437,-14.526
-0.691,-0.600,0.324,608.887,-151.001,-0.244
-0.769,-1.068,0.542,606.323,-142.090,16.113
-0.807,-1.382,0.819,568.359,-118.164,39.063
-0.849,-1.691,0.940,448.242,-84.534,53.284
-0.860,-1.695,0.965,299.988,-47.241,62.683
-0.785,-1.353,0.765,168.396,-12.878,61.707

-0.360,0.098,1.143,-238.953,47.119,-14.038
-0.267,-0.073,0.972,-236.450,52.673,-11.658
-0.356,-0.425,0.833,-226.257,51.392,-8.057
-0.343,-0.379,0.522,-210.510,44.250,10.864
-0.194,-0.412,0.380,-190.735,41.016,11.414
-0.203,-0.324,0.293,-181.213,33.386,22.095
-0.291,-0.249,0.268,-170.166,24.963,33.752
-0.423,-0.239,0.233,-176.086,17.578,42.908
-0.612,-0.198,0.213,-194.275,9.399,47.302
-0.753,0.155,0.267,-208.496,3.296,49.744
-0.789,0.545,0.294,-212.402,-0.122,44.556
-0.810,0.868,0.288,-205.688,-1.770,38.818
-0.747,1.152,0.291,-183.716,1.953,36.804
-0.619,1.286,0.271,-152.466,10.193,32.898
-0.624,1.218,0.219,-122.803,20.447,26.611
-0.563,1.160,0.214,-97.229,25.085,28.809
-0.511,1.048,0.217,-75.012,22.339,30.701
-0.487,1.038,0.216,-57.922,16.907,28.687
-0.467,1.069,0.257,-42.114,11.536,25.146
-0.471,1.106,0.290,-25.269,9.521,19.043
-0.505,1.163,0.303,-11.230,9.033,13.428
-0.513,1.172,0.343,4.822,7.324,7.080
-0.490,1.198,0.378,25.696,6.226,-1.770
-0.451,1.244,0.378,47.546,6.042,-8.301
-0.432,1.305,0.351,72.815,3.540,-15.564
-0.434,1.327,0.315,102.051,0.488,-23.926
-0.441,1.315,0.274,133.240,-3.174,-32.959
-0.430,1.325,0.226,177.429,-8.850,-41.260
-0.424,1.286,0.188,209.961,-16.357,-49.988
-0.416,1.350,0.173,248.840,-26.184,-58.228
-0.423,1.248,0.146,298.828,-39.185,-67.627
-0.451,1.006,0.084,336.121,-56.824,-73.975
-0.458,0.754,0.059,360.840,-77.148,-75.073
-0.486,0.569,0.150,376.648,-94.482,-72.754
-0.519,0.367,0.126,390.076,-108.459,-70.251
-0.511,0.269,0.229,430.420,-120.789,-61.890
-0.590,-0.133,0.229,465.942,-128.601,-49.561
-0.654,-0.568,0.291,479.675,-129.578,-29.358
-0.674,-0.967,0.375,485.107,-121.704,-3.601
-0.664,-1.283,0.450,473.022,-107.178,18.799
-0.673,-1.596,0.592,423.645,-86.243,36.438
-0.636,-1.746,0.687,333.252,-57.007,46.570
-0.604,-1.577,0.703,217.834,-27.161,47.180
-0.505,-1.270,0.672,105.774,-2.747,40.527
-0.500,-1.049,0.609,13.916,13.367,32.471
-0.535,-0.780,0.498,-37.842,17.395,27.588
-0.543,-0.567,0.534,-65.125,10.620,22.888
-0.531,-0.377,0.606,-76.111,1.526,16.785
-0.562,-0.138,0.791,-66.956,-5.554,11.963
-0.566,0.030,0.911,-44.006,-9.216,7.385
-0.582,0.091,0.978,-24.536,-13.672,4.700
-0.557,0.132,0.970,-11.963,-14.221,1.892
-0.587,0.123,0.997,-3.662,-16.052,1.770
-0.597,0.076,1.016,1.282,-16.052,2.319
-0.604,-0.003,1.017,0.977,-15.320,1.892
-0.589,-0.056,0.980,-3.174,-14.709,0.183
-0.573,-0.093,0.972,-11.292,-12.695,-2.319
-0.540,-0.097,0.902,-20.691,-9.888,-5.798
-0.543,-0.144,0.923,-23.499,-8.362,-8.240
-0.541,-0.178,0.938,-31.799,-6.165,-11.292
-0.543,-0.183,0.950,-42.847,-4.944,-13.428
-0.519,-0.179,0.947,-53.406,-2.319,-16.052
-0.511,-0.225,0.930,-67.383,-0.549,-17.212
-0.529,-0.211,0.935,-87.830,1.221,-16.235
-0.526,-0.163,0.974,-109.314,3.601,-15.564
-0.519,-0.191,1.013,-135.620,7.202,-15.503
-0.565,-0.206,1.108,-171.387,12.756,-16.174
-0.628,-0.256,1.303,-218.506,19.836,-17.883
-0.639,-0.243,1.460,-267.761,28.564,-15.747
-0.671,-0.211,1.537,-299.988,38.818,-13.916
-0.696,-0.286,1.452,-324.524,50.598,-11.597
-0.656,-0.256,1.347,-343.140,58.899,-6.348
-0.553,-0.190,1.116,-341.248,64.209,-4.456
-0.254,0.165,0.799,-305.664,70.374,-5.798
-0.302,0.073,0.508,-267.212,68.970,-17.517
-0.195,0.089,0.264,-242.371,52.307,-19.287
-0.213,-0.049,0.094,-231.323,43.518,-15.320
-0.270,-0.173,0.067,-241.943,29.419,-0.793
-0.419,-0.333,0.081,-248.840,15.930,17.700
-0.630,-0.302,0.089,-258.545,6.958,32.166
-0.721,0.100,0.186,-262.329,0.671,40.405
-0.735,0.433,0.340,-251.953,-3.540,35.706
-0.738,0.438,0.435,-239.807,-2.136,30.029
-0.710,0.420,0.436,-240.540,4.150,32.776
-0.649,0.542,0.365,-234.863,8.728,35.950
-0.692,0.580,0.266,-232.727,14.404,36.865
-0.687,0.610,0.190,-234.436,13.245,38.635
-0.664,0.636,0.178,-242.432,4.700,36.621
-0.518,0.872,0.063,-236.450,-0.732,30.334
-0.578,0.983,0.033,-208.923,5.981,17.822
-0.585,1.091,0.033,-186.096,7.019,14.587
-0.594,1.195,0.062,-153.503,7.935,12.207
-0.588,1.235,0.115,-118.286,12.146,10.681
-0.533,1.236,0.171,-87.097,15.381,11.902
-0.504,1.263,0.188,-61.462,11.230,13.550
-0.483,1.252,0.237,-38.818,5.737,13.794
-0.463,1.273,0.273,-18.372,1.282,13.062
-0.479,1.304,0.285,2.197,-3.479,8.545
-0.504,1.282,0.277,23.865,-6.042,0.305
-0.513,1.251,0.248,47.607,-6.653,-8.423
-0.510,1.257,0.241,73.792,-7.507,-16.846
-0.508,1.312,0.243,100.708,-11.230,-25.635
-0.521,1.375,0.225,138.184,-15.625,-34.607
-0.522,1.411,0.220,168.396,-18.188,-44.067
-0.515,1.376,0.185,203.186,-20.447,-52.490
-0.494,1.378,0.126,242.310,-23.560,-56.763
-0.480,1.259,0.077,278.259,-31.860,-60.913
-0.436,1.101,0.009,311.951,-43.091,-63.416
-0.412,0.898,-0.005,339.294,-53.589,-61.401
-0.424,0.634,0.017,357.483,-67.932,-60.059
-0.468,0.402,0.081,383.850,-83.801,-52.002
-0.498,0.139,0.178,404.602,-95.642,-41.382
-0.534,-0.130,0.307,414.062,-102.722,-29.541
-0.542,-0.346,0.445,408.081,-105.408,-14.771
-0.555,-0.518,0.558,423.889,-98.572,0.854
-0.573,-0.636,0.676,402.954,-89.355,11.414
-0.580,-0.755,0.702,357.300,-74.768,20.813
-0.581,-0.860,0.755,289.185,-56.885,28.259
-0.577,-0.875,0.794,208.252,-36.621,33.813

-0.267,-0.073,0.972,-236.450,52.673,-11.658
-0.356,-0.425,0.833,-226.257,51.392,-8.057
-0.343,-0.379,0.522,-210.510,44.250,10.864
-0.194,-0.412,0.380,-190.735,41.016,11.414
-0.203,-0.324,0.293,-181.213,33.386,22.095
-0.291,-0.249,0.268,-170.166,24.963,33.752
-0.423,-0.239,0.233,-176.086,17.578,42.908
-0.612,-0.198,0.213,-194.275,9.399,47.302
-0.753,0.155,0.267,-208.496,3.296,49.744
-0.789,0.545,0.294,-212.402,-0.122,44.556
-0.810,0.868,0.288,-205.688,-1.770,38.818
-0.747,1.152,0.291,-183.716,1.953,36.804
-0.619,1.286,0.271,-152.466,10.193,32.898
-0.624,1.218,0.219,-122.803,20.447,26.611
-0.563,1.160,0.214,-97.229,25.085,28.809
-0.511,1.048,0.217,-75.012,22.339,30.701
-0.487,1.038,0.216,-57.922,16.907,28.687
-0.467,1.069,0.257,-42.114,11.536,25.146
-0.471,1.106,0.290,-25.269,9.521,19.043
-0.505,1.163,0.303,-11.230,9.033,13.428
-0.513,1.172,0.343,4.822,7.324,7.080
-0.490,1.198,0.378,25.696,6.226,-1.770
-0.451,1.244,0.378,47.546,6.042,-8.301
-0.432,1.305,0.351,72.815,3.540,-15.564
-0.434,1.327,0.315,102.051,0.488,-23.926
-0.441,1.315,0.274,133.240,-3.174,-32.959
-0.430,1.325,0.226,177.429,-8.850,-41.260
-0.424,1.286,0.188,209.961,-16.357,-49.988
-0.416,1.350,0.173,248.840,-26.184,-58.228
-0.423,1.248,0.146,298.828,-39.185,-67.627
-0.451,1.006,0.084,336.121,-56.824,-73.975
-0.458,0.754,0.059,360.840,-77.148,-75.073
-0.486,0.569,0.150,376.648,-94.482,-72.754
-0.519,0.367,0.126,390.076,-108.459,-70.251
-0.511,0.269,0.229,430.420,-120.789,-61.890
-0.590,-0.133,0.229,465.942,-128.601,-49.561
-0.654,-0.568,0.291,479.675,-129.578,-29.358
-0.674,-0.967,0.375,485.107,-121.704,-3.601
-0.664,-1.283,0.450,473.022,-107.178,18.799
-0.692,0.909,0.719,1.221,-17.395,2.991
-0.687,0.950,0.679,18.127,-10.864,-2.258
-0.673,0.952,0.637,39.795,-5.676,-9.644
-0.658,0.873,0.566,61.523,-1.526,-18.311
-0.625,0.807,0.503,80.200,0.000,-24.719
-0.592,0.801,0.452,96.191,-0.305,-27.588
-0.514,0.935,0.431,114.929,-1.587,-27.405
-0.474,0.970,0.414,138.733,-0.549,-29.541
-0.447,0.863,0.391,165.894,-2.075,-31.860
-0.415,0.659,0.346,192.871,-8.484,-30.640
-0.381,0.384,0.453,208.435,-20.813,-24.231
-0.372,0.179,0.512,238.708,-31.921,-12.512
-0.374,0.046,0.583,247.986,-41.077,-0.061
-0.375,-0.043,0.728,243.713,-47.729,11.536
-0.439,-0.074,0.807,258.484,-44.983,24.475
-0.458,-0.149,0.837,264.954,-35.278,35.889
-0.456,-0.349,0.759,256.226,-22.522,44.556
-0.433,-0.419,0.682,228.088,-13.184,50.415
-0.400,-0.344,0.756,199.402,-9.460,54.138
-0.412,-0.293,0.828,168.457,-2.930,53.284
-0.378,-0.239,0.913,141.479,4.211,51.270
-0.385,-0.179,1.021,114.990,9.705,50.049
-0.406,-0.124,1.060,92.163,19.653,45.532
-0.405,-0.032,1.101,74.463,27.222,42.480
-0.380,0.020,1.119,59.570,33.508,39.734
-0.358,0.018,1.008,38.940,38.025,35.645
-0.334,0.107,0.883,31.616,39.734,30.945
-0.326,0.158,0.862,32.959,37.659,26.245
-0.344,0.024,0.827,32.715,31.006,22.400
-0.395,-0.108,0.789,36.011,24.475,21.057
-0.405,-0.113,0.779,39.307,19.104,20.447
-0.423,-0.084,0.829,33.997,13.916,18.738
-0.434,-0.079,0.895,23.376,9.033,15.076
-0.457,-0.057,0.951,11.414,5.493,11.108
-0.480,-0.044,0.997,4.822,1.953,7.019
-0.489,-0.067,1.029,5.859,-1.221,4.089
-0.485,-0.059,1.024,11.719,-3.784,2.747
-0.475,-0.062,1.053,15.991,-8.240,1.953
-0.470,-0.077,1.115,11.292,-13.062,0.244
-0.450,-0.070,1.146,5.737,-15.015,-2.258
-0.437,-0.034,1.139,-0.610,-15.442,-4.150
-0.414,-0.044,1.018,-4.028,-12.207,-4.578
-0.406,-0.083,1.040,-9.155,-14.648,-4.761
-0.389,-0.090,1.019,-12.329,-19.409,-5.066
-0.370,-0.066,1.017,-15.320,-20.569,-6.226
-0.350,-0.051,1.064,-20.386,-20.569,-8.911
-0.350,-0.080,1.197,-31.372,-20.752,-13.000
-0.377,-0.157,1.189,-52.307,-18.738,-16.602
-0.394,-0.224,1.061,-75.989,-17.456,-16.418
-0.427,-0.300,0.971,-97.351,-16.052,-13.367
-0.432,-0.390,0.892,-123.169,-12.451,-11.230
-0.479,-0.341,0.895,-147.339,-6.714,-9.583
-0.395,-0.266,0.868,-185.608,4.456,-12.451
-0.338,-0.135,0.938,-222.656,9.583,-21.179
-0.263,-0.013,0.856,-233.398,18.982,-30.762
-0.252,0.080,0.803,-239.685,20.325,-34.912
-0.204,0.190,0.774,-230.591,14.648,-35.217
-0.143,0.340,0.673,-204.590,9.338,-34.363
-0.146,0.245,0.561,-179.810,3.296,-35.828
-0.133,0.151,0.527,-164.185,-4.028,-29.236
-0.162,0.100,0.581,-157.715,-8.728,-18.555
-0.248,0.117,0.615,-158.325,-10.315,-10.376
-0.337,0.186,0.686,-172.119,-11.292,-7.812
-0.351,0.265,0.681,-181.274,-9.521,-8.118
-0.380,0.228,0.649,-193.726,-9.094,-9.338
-0.392,0.223,0.601,-203.064,-9.521,-5.798
-0.409,0.272,0.562,-195.557,-9.216,1.099
-0.455,0.380,0.540,-184.998,-8.484,8.789
-0.528,0.422,0.538,-170.349,-10.376,11.047
-0.599,0.477,0.583,-157.776,-11.169,9.521
-0.639,0.568,0.649,-147.034,-9.094,8.301
-0.658,0.652,0.693,-132.751,-6.165,7.996
-0.670,0.729,0.705,-117.554,-3.601,7.812
-0.670,0.862,0.688,-98.694,0.061,6.714
-0.684,1.003,0.639,-76.660,4.822,2.991
-0.691,1.150,0.565,-54.932,7.263,-3.906
-0.698,1.245,0.466,-19.043,8.850,-12.756
-0.656,1.292,0.405,22.766,9.155,-21.362
-0.613,1.238,0.401,57.251,8.301,-29.480
-0.565,1.134,0.401,79.773,7.202,-34.546

-0.256,-0.011,0.815,-165.955,62.500,51.025
-0.309,-0.024,0.785,-178.589,61.096,50.415
-0.349,0.046,0.657,-176.270,63.904,50.110
-0.391,-0.002,0.754,-176.514,62.500,48.950
-0.424,0.035,0.774,-183.044,58.716,48.828
-0.394,0.167,0.767,-181.458,57.312,47.485
-0.314,0.340,0.740,-180.237,53.833,42.847
-0.231,0.480,0.749,-179.260,46.631,33.264
-0.197,0.522,0.807,-177.002,36.438,21.179
-0.219,0.462,0.948,-169.556,24.109,10.376
-0.238,0.430,1.110,-153.198,10.498,1.282
-0.266,0.355,1.249,-133.423,-5.005,-5.005
-0.325,0.201,1.402,-119.995,-20.447,-8.728
-0.379,0.114,1.545,-101.929,-32.349,-9.766
-0.446,0.023,1.616,-82.031,-39.490,-8.301
-0.487,0.002,1.590,-66.345,-43.152,-4.028
-0.488,-0.023,1.484,-42.297,-41.260,0.977
-0.451,-0.015,1.355,-44.067,-42.664,2.747
-0.383,0.169,1.388,-47.729,-46.021,0.671
-0.320,0.342,1.316,-42.664,-35.278,-8.545
-0.194,0.386,1.141,-48.828,-24.719,-21.118
-0.163,0.386,1.062,-61.340,-23.743,-31.799
-0.095,0.364,0.986,-75.989,-25.879,-37.964
-0.027,0.410,0.853,-86.060,-28.320,-40.527
-0.020,0.390,0.734,-97.778,-33.875,-43.091
-0.041,0.421,0.746,-109.558,-40.588,-43.030
-0.099,0.479,0.758,-118.835,-39.185,-43.274
-0.144,0.560,0.758,-118.164,-34.119,-45.349
-0.171,0.595,0.787,-114.197,-33.936,-45.044
-0.189,0.443,0.717,-117.188,-34.546,-39.978
-0.135,0.176,0.554,-127.930,-38.208,-27.588
-0.181,-0.074,0.388,-163.025,-42.358,-9.766
-0.261,-0.117,0.276,-226.440,-45.837,8.484
-0.332,-0.016,0.105,-274.414,-53.833,19.165
-0.377,0.221,-0.068,-275.024,-65.491,22.583
-0.421,0.571,-0.200,-248.291,-84.106,19.775
-0.539,0.887,-0.184,-216.919,-104.004,15.015
-0.638,0.995,-0.089,-185.303,-117.676,11.963
-0.707,1.070,0.114,-164.429,-119.141,13.123
-0.780,1.302,0.413,-133.728,-111.694,17.151
-0.872,1.395,0.724,-100.037,-97.656,17.029
-0.855,1.412,0.879,-62.134,-80.688,16.296
-0.777,1.352,0.910,-27.527,-65.979,15.808
-0.735,1.161,0.832,0.610,-49.194,9.399
-0.630,0.984,0.712,24.841,-30.457,3.052
-0.541,0.929,0.552,42.236,-15.442,-2.136
-0.501,0.918,0.430,62.561,-5.432,-9.827
-0.477,0.866,0.303,76.477,2.014,-17.395
-0.446,0.917,0.224,89.966,7.629,-23.560
-0.441,1.016,0.150,111.145,14.587,-29.419
-0.432,1.176,0.150,138.367,18.921,-34.302
-0.421,1.264,0.156,174.866,23.010,-40.649
-0.427,1.288,0.163,210.266,26.245,-44.128
-0.431,1.226,0.183,244.324,25.513,-45.105
-0.434,1.057,0.225,274.902,24.719,-43.152
-0.432,0.859,0.349,279.785,23.193,-39.551
-0.428,0.722,0.311,296.204,17.700,-35.095
-0.427,0.581,0.272,322.449,11.414,-28.809
-0.448,0.418,0.228,336.304,5.798,-21.545
-0.427,0.258,0.187,327.881,-1.526,-12.817
-0.428,0.132,0.196,317.505,-5.737,-0.916
-0.408,0.014,0.229,292.664,-8.240,10.498
-0.022,-0.172,0.261,279.846,-9.705,25.818
-0.496,-0.272,0.208,271.606,-5.981,53.528
-0.603,-0.333,0.344,248.779,-17.456,58.777
-0.420,-0.305,0.549,245.972,-11.902,58.289
-0.305,-0.265,0.613,228.333,8.972,60.669
-0.327,-0.210,0.748,204.773,18.555,61.462
-0.356,-0.122,0.849,187.378,22.827,59.326
-0.366,-0.084,1.000,165.955,30.334,54.077
-0.360,-0.098,1.054,137.329,35.278,50.415
-0.318,-0.075,1.054,109.680,35.950,51.086
-0.294,-0.088,1.031,88.989,36.743,54.138
-0.207,-0.197,0.905,65.979,39.795,58.533
-0.208,-0.273,0.796,38.574,38.818,66.223
-0.285,-0.184,0.689,12.207,39.001,70.068
-0.275,0.084,0.661,-6.409,40.588,65.552
-0.232,0.105,0.719,-34.729,39.978,54.138
-0.266,0.070,0.801,-62.561,35.278,42.908
-0.289,0.068,0.880,-83.740,29.785,32.288
-0.313,-0.014,0.902,-87.036,22.522,23.926
-0.355,-0.127,0.914,-85.754,15.259,18.616
-0.398,-0.166,0.939,-74.341,7.568,17.029
-0.410,-0.197,0.943,-59.021,0.732,17.578
-0.404,-0.238,1.021,-46.448,-5.371,18.677
-0.419,-0.269,1.172,-38.818,-8.728,19.470
-0.415,-0.222,1.174,-33.875,-6.042,20.264
-0.402,-0.106,1.175,-34.973,-5.127,20.325
-0.376,-0.004,1.086,-38.879,-5.005,18.494
-0.343,0.041,1.002,-40.710,-6.714,15.137
-0.303,0.084,0.927,-38.940,-8.911,10.559
-0.277,0.107,0.876,-38.879,-13.611,5.493
-0.257,0.106,0.828,-37.476,-19.287,1.648
-0.254,0.071,0.829,-37.903,-23.376,-1.953
-0.250,0.069,0.878,-38.391,-25.635,-3.845
-0.242,0.105,0.910,-42.175,-25.940,-4.761
-0.246,0.105,0.857,-58.105,-24.963,-6.653
-0.299,0.052,0.794,-82.031,-25.269,-10.864
-0.376,0.036,0.801,-100.891,-27.283,-13.367
-0.384,0.226,1.060,-112.549,-29.053,-16.968
-0.308,0.388,1.427,-121.155,-29.541,-26.001
-0.258,0.397,1.418,-132.629,-28.931,-36.011
-0.253,0.484,1.365,-129.517,-32.837,-41.138
-0.225,0.438,1.383,-135.986,-36.682,-46.570
-0.203,0.259,1.300,-158.081,-37.048,-49.927
-0.248,0.041,1.167,-191.711,-35.889,-45.959
-0.344,0.091,1.311,-227.661,-39.307,-34.973
-0.394,0.344,1.263,-235.352,-34.363,-33.020
-0.416,0.424,1.209,-230.713,-27.405,-42.908
-0.403,0.474,1.208,-231.384,-25.513,-51.575
-0.384,0.502,1.199,-215.149,-26.001,-57.556
-0.391,0.533,1.133,-191.650,-27.283,-57.861
-0.411,0.416,1.121,-170.410,-29.114,-52.368
-0.378,0.075,1.009,-167.419,-31.250,-43.762
-0.290,-0.331,0.817,-193.115,-34.729,-27.466
-0.275,-0.588,0.556,-231.201,-35.706,-2.197
-0.302,-0.357,0.323,-236.572,-37.048,24.841
-0.341,0.086,0.143,-213.196,-41.077,37.781
-0.378,0.478,0.039,-186.218,-49.683,35.339

-0.095,0.364,0.986,-75.989,-25.879,-37.964
-0.027,0.410,0.853,-86.060,-28.320,-40.527
-0.020,0.390,0.734,-97.778,-33.875,-43.091
-0.041,0.421,0.746,-109.558,-40.588,-43.030
-0.099,0.479,0.758,-118.835,-39.185,-43.274
-0.144,0.560,0.758,-118.164,-34.119,-45.349
-0.171,0.595,0.787,-114.197,-33.936,-45.044
-0.189,0.443,0.717,-117.188,-34.546,-39.978
-0.135,0.176,0.554,-127.930,-38.208,-27.588
-0.181,-0.074,0.388,-163.025,-42.358,-9.766
-0.261,-0.117,0.276,-226.440,-45.837,8.484
-0.332,-0.016,0.105,-274.414,-53.833,19.165
-0.377,0.221,-0.068,-275.024,-65.491,22.583
-0.421,0.571,-0.200,-248.291,-84.106,19.775
-0.539,0.887,-0.184,-216.919,-104.004,15.015
-0.638,0.995,-0.089,-185.303,-117.676,11.963
-0.707,1.070,0.114,-164.429,-119.141,13.123
-0.780,1.302,0.413,-133.728,-111.694,17.151
-0.209,0.320,0.334,-95.276,-12.573,48.523
-0.280,0.458,0.387,-91.064,-16.357,42.603
-0.326,0.544,0.461,-82.458,-16.785,34.973
-0.355,0.596,0.563,-70.129,-15.259,30.762
-0.386,0.576,0.681,-55.481,-13.733,31.128
-0.430,0.603,0.778,-45.227,-13.062,35.156
-0.480,0.654,0.749,-32.166,-11.902,36.072
-0.509,0.685,0.710,-8.606,-10.376,31.494
-0.517,0.647,0.646,14.343,-7.751,20.691
-0.488,0.693,0.629,32.227,-2.686,8.850
-0.487,0.734,0.598,49.988,2.563,-4.150
-0.446,0.756,0.512,69.153,6.714,-12.756
-0.389,0.711,0.406,85.205,5.432,-18.433
-0.337,0.669,0.339,98.572,-2.197,-24.231
-0.309,0.566,0.314,105.652,-11.597,-29.053
-0.261,0.504,0.245,140.015,-27.100,-28.442
-0.194,0.360,0.264,165.039,-42.908,-24.536
-0.138,0.230,0.436,206.848,-54.443,-16.663
-0.087,-0.061,0.432,273.926,-54.199,-4.333
-0.107,-0.332,0.696,314.026,-54.504,9.705
-0.113,-0.856,0.887,316.162,-67.139,14.282
-0.274,-1.364,1.663,326.172,-79.712,30.762
-0.407,-1.260,1.733,349.792,-58.838,53.772
-0.340,-0.966,1.331,323.303,-8.789,54.443
-0.350,-0.872,0.999,264.771,10.925,62.439
-0.248,-1.085,0.617,189.880,10.193,71.960
-0.346,-1.034,0.512,159.302,4.944,81.665
-0.464,-0.821,0.781,161.377,11.536,87.158
-0.576,-0.492,1.171,179.077,26.245,90.820
-0.469,-0.259,1.364,160.583,38.879,84.900
-0.333,-0.048,1.324,132.935,45.471,74.036
-0.280,0.068,1.295,83.313,47.546,61.646
-0.292,-0.010,1.278,27.466,36.438,51.392
-0.304,-0.170,1.312,-14.221,30.212,41.992
-0.305,-0.269,1.275,-42.114,27.405,33.813
-0.295,-0.230,1.246,-57.190,23.743,28.625
-0.270,-0.241,1.121,-55.603,20.996,24.536
-0.237,-0.268,0.976,-50.171,20.874,20.508
-0.213,-0.284,0.903,-42.786,21.790,17.395
-0.215,-0.305,0.914,-34.668,20.020,14.099
-0.229,-0.329,0.955,-26.794,16.724,11.719
-0.244,-0.322,0.966,-17.212,12.085,10.498
-0.255,-0.304,0.953,-9.155,6.287,9.033
-0.265,-0.287,0.929,-5.676,0.549,7.812
-0.289,-0.286,0.920,-10.803,-4.517,6.348
-0.312,-0.233,0.945,-22.766,-9.216,3.235
-0.322,-0.169,0.970,-33.386,-14.648,-1.038
-0.332,-0.134,1.002,-47.791,-17.151,-6.348
-0.335,-0.125,1.050,-62.866,-17.029,-11.536
-0.335,-0.141,1.084,-72.754,-11.780,-15.991
-0.330,-0.181,1.075,-76.904,-3.113,-19.653
-0.363,-0.199,1.163,-95.215,5.005,-21.973
-0.372,-0.246,1.187,-118.652,12.024,-25.085
-0.366,-0.256,1.180,-122.192,22.400,-28.015
-0.371,-0.237,1.246,-134.583,31.799,-32.227
-0.334,-0.217,1.125,-152.954,42.419,-37.842
-0.344,-0.211,1.236,-163.452,47.546,-42.603
-0.194,-0.292,1.070,-162.354,57.556,-43.823
-0.363,-0.375,1.137,-170.471,59.143,-42.603
-0.091,-0.529,0.736,-162.598,68.115,-35.706
-0.123,-0.511,1.411,-190.125,60.303,-30.823
-0.002,-0.181,1.331,-177.185,72.021,-22.522
0.150,-0.120,1.035,-173.828,82.275,-23.254
0.238,-0.277,0.737,-165.344,75.073,-21.057
0.262,-0.339,0.585,-150.024,65.430,-15.503
0.265,-0.315,0.491,-132.629,57.495,-7.690
0.193,-0.255,0.509,-122.742,51.331,2.014
0.138,-0.047,0.562,-123.718,46.082,12.207
0.117,0.174,0.594,-122.498,39.856,15.564
0.074,0.262,0.624,-120.544,34.119,13.062
0.015,0.345,0.613,-120.789,29.480,12.268
-0.005,0.369,0.612,-116.089,24.048,11.230
-0.035,0.428,0.659,-108.521,20.264,11.536
-0.078,0.436,0.716,-94.604,17.151,13.000
-0.134,0.381,0.757,-75.500,14.282,13.977
-0.181,0.310,0.813,-59.814,12.451,15.503
-0.234,0.283,0.839,-44.739,12.207,16.968
-0.266,0.267,0.836,-26.184,12.451,17.090
-0.256,0.282,0.800,-11.902,13.062,13.672
-0.230,0.360,0.745,-0.916,14.404,7.568
-0.199,0.466,0.650,6.714,15.991,1.709
-0.163,0.649,0.597,18.066,15.625,-4.578
-0.143,0.758,0.543,34.729,12.756,-13.977
-0.108,0.856,0.534,53.528,6.165,-21.545
-0.066,0.850,0.537,80.444,-2.625,-26.794
-0.021,0.749,0.523,114.807,-14.771,-30.151
0.022,0.561,0.496,148.682,-29.419,-30.212
0.076,0.367,0.462,182.861,-42.786,-26.367
0.124,0.136,0.506,215.759,-53.589,-19.470
0.116,-0.013,0.375,248.474,-54.932,-10.803
0.090,-0.096,0.608,255.859,-57.251,-4.639
0.099,-0.443,0.463,277.344,-61.890,1.221
0.000,-1.054,0.868,291.992,-78.003,13.306
-0.183,-1.146,1.619,303.528,-85.632,33.020
-0.158,-0.860,1.596,302.368,-43.152,42.175
-0.129,-0.640,1.203,253.784,2.563,39.734
-0.032,-0.630,0.828,188.965,14.587,37.964
-0.038,-0.608,0.675,149.231,6.775,42.358
-0.192,-0.520,0.696,126.404,1.648,46.875
-0.301,-0.475,0.949,107.849,1.648,45.776
-0.368,-0.329,1.204,92.041,8.240,41.931

-0.487,0.734,0.598,49.988,2.563,-4.150
-0.446,0.756,0.512,69.153,6.714,-12.756
-0.389,0.711,0.406,85.205,5.432,-18.433
-0.337,0.669,0.339,98.572,-2.197,-24.231
-0.309,0.566,0.314,105.652,-11.597,-29.053
-0.261,0.504,0.245,140.015,-27.100,-28.442
-0.194,0.360,0.264,165.039,-42.908,-24.536
-0.138,0.230,0.436,206.848,-54.443,-16.663
-0.087,-0.061,0.432,273.926,-54.199,-4.333
-0.107,-0.332,0.696,314.026,-54.504,9.705
-0.113,-0.856,0.887,316.162,-67.139,14.282
-0.274,-1.364,1.663,326.172,-79.712,30.762
0.145,0.105,0.695,-94.543,7.996,22.827
0.114,0.153,0.693,-87.463,3.357,28.259
0.090,0.151,0.690,-86.426,0.916,28.870
0.049,0.205,0.692,-89.600,-1.343,30.151
0.031,0.249,0.681,-86.304,-3.845,29.968
0.050,0.303,0.672,-79.102,-6.165,28.809
0.073,0.358,0.678,-69.580,-8.301,28.564
0.084,0.431,0.701,-55.725,-12.207,30.090
0.063,0.497,0.753,-44.800,-16.663,28.931
0.020,0.551,0.821,-32.593,-19.897,25.940
-0.025,0.566,0.858,-16.174,-21.973,22.156
-0.069,0.593,0.865,-0.610,-22.644,18.188
-0.125,0.639,0.851,14.038,-21.545,13.062
-0.189,0.679,0.786,30.518,-19.531,6.409
-0.234,0.738,0.734,48.218,-17.578,-2.319
-0.271,0.720,0.670,60.425,-14.526,-13.123
-0.261,0.763,0.643,66.772,-9.644,-25.330
-0.241,0.860,0.586,76.538,-3.052,-40.344
-0.186,1.103,0.635,104.797,3.662,-56.763
-0.126,1.157,0.605,143.188,6.714,-74.524
-0.066,1.018,0.423,166.260,-1.892,-85.327
0.006,0.918,0.145,208.191,-18.677,-87.524
0.011,0.619,-0.035,258.972,-41.809,-88.013
0.025,-0.017,-0.257,297.302,-69.885,-75.134
0.098,-0.614,-0.338,324.097,-96.191,-46.509
0.131,-1.222,-0.182,337.585,-112.976,-14.648
0.092,-1.886,-0.087,336.121,-113.525,17.761
0.068,-2.318,0.457,316.467,-105.652,46.387
-0.019,-2.230,1.404,293.884,-88.562,59.998
0.083,-1.752,1.359,234.131,-40.710,59.937
0.160,-1.345,0.828,136.841,0.488,60.242
0.311,-1.059,0.345,83.984,12.451,68.848
0.249,-1.023,0.408,79.773,5.310,83.679
0.144,-0.907,0.635,62.256,3.357,97.534
-0.193,-0.567,1.124,31.189,4.089,104.431
-0.375,-0.205,1.402,3.113,12.512,101.135
-0.232,0.128,1.470,-24.780,27.527,87.585
-0.030,0.415,1.495,-35.889,37.415,70.618
0.030,0.414,1.516,-37.170,38.940,53.772
0.060,0.137,1.526,-47.424,31.433,36.987
0.092,-0.069,1.464,-49.255,17.822,24.109
0.098,-0.226,1.420,-53.955,9.094,17.029
0.115,-0.297,1.344,-57.800,4.089,11.353
0.133,-0.310,1.304,-56.030,-1.038,6.592
0.140,-0.344,1.274,-52.429,-4.883,3.723
0.067,-0.300,1.128,-48.401,-6.531,0.793
0.137,-0.399,1.208,-47.424,-10.437,-4.395
0.079,-0.381,1.163,-52.490,-11.414,-3.784
0.041,-0.287,1.086,-50.354,-17.334,-3.723
0.052,-0.229,1.089,-48.157,-29.785,-4.089
0.038,-0.166,1.171,-43.030,-43.335,-7.751
-0.018,-0.063,1.292,-39.429,-48.401,-15.625
-0.069,-0.060,1.406,-41.077,-47.180,-25.513
-0.131,-0.077,1.474,-38.269,-43.213,-33.997
-0.172,-0.102,1.490,-39.856,-36.560,-39.246
-0.147,-0.169,1.437,-50.293,-24.536,-44.617
-0.115,-0.158,1.425,-54.504,-9.033,-49.500
-0.135,-0.256,1.410,-66.406,4.333,-53.406
-0.130,-0.379,1.348,-85.388,19.226,-53.650
-0.060,-0.447,1.264,-103.760,31.372,-54.199
0.007,-0.467,1.337,-124.695,38.025,-55.847
0.070,-0.470,1.305,-135.864,43.457,-53.467
0.174,-0.410,1.261,-142.883,48.645,-49.377
0.264,-0.331,1.123,-142.700,50.415,-49.255
0.324,-0.341,1.060,-143.738,46.326,-49.011
0.400,-0.420,0.900,-143.555,42.114,-43.884
0.436,-0.479,0.798,-136.963,41.199,-33.142
0.424,-0.550,0.707,-127.075,39.185,-21.912
0.427,-0.506,0.574,-125.305,37.292,-10.193
0.423,-0.335,0.568,-120.789,31.433,-1.648
0.372,-0.098,0.570,-107.666,24.597,3.479
0.295,0.031,0.598,-89.783,17.151,7.263
0.212,0.031,0.548,-81.909,11.719,9.521
0.189,-0.010,0.532,-78.613,4.211,15.015
0.204,-0.050,0.494,-88.684,-8.484,19.653
0.066,-0.059,0.497,-90.759,-17.944,25.574
0.039,-0.048,0.510,-95.581,-25.085,30.396
-0.019,0.030,0.548,-93.140,-29.968,33.142
-0.042,0.103,0.599,-90.515,-32.166,33.020
-0.037,0.145,0.660,-87.158,-32.654,31.921
-0.051,0.263,0.674,-86.609,-32.104,31.860
-0.053,0.358,0.678,-83.130,-31.738,30.640
-0.076,0.450,0.703,-75.073,-32.410,29.602
-0.109,0.543,0.728,-63.110,-33.447,28.320
-0.167,0.693,0.738,-44.556,-33.936,25.818
-0.239,0.823,0.754,-17.883,-33.936,20.996
-0.303,0.960,0.768,18.433,-31.372,10.498
-0.327,1.135,0.785,58.105,-25.452,-6.897
-0.313,1.272,0.758,100.464,-15.381,-31.067
-0.245,1.370,0.597,136.963,-8.789,-53.711
-0.151,1.337,0.364,180.298,-9.277,-69.641
-0.072,1.196,0.120,231.812,-19.836,-80.505
-0.002,0.814,-0.073,273.987,-43.030,-87.402
0.068,0.349,-0.168,301.025,-77.026,-82.764
0.096,-0.274,0.019,343.079,-108.215,-64.514
0.064,-0.802,0.315,384.399,-126.038,-32.410
0.024,-1.430,0.585,394.653,-122.070,4.333
0.006,-1.989,0.614,333.862,-97.839,34.302
-0.005,-2.180,0.881,279.175,-82.031,57.861
0.035,-2.120,1.276,220.764,-66.833,67.444
0.139,-1.649,1.258,160.278,-33.752,74.524
-0.007,-0.895,1.418,137.939,-1.831,79.285
0.189,-0.472,1.168,114.624,29.236,71.289
0.270,-0.505,0.542,83.984,38.513,67.017
0.177,-0.371,0.471,84.961,17.761,67.505
-0.048,-0.322,0.573,79.834,-0.671,72.083
-0.275,-0.327,0.822,39.551,0.610,68.787

-0.162,-0.281,0.903,278.137,-96.191,3.052
-0.146,-0.465,0.669,263.855,-79.346,11.841
-0.166,-0.888,0.568,248.169,-76.477,22.217
-0.155,-0.982,0.721,233.948,-84.290,34.485
-0.159,-0.745,0.815,238.770,-72.998,38.879
-0.195,-0.482,0.904,225.281,-47.729,34.851
-0.261,-0.316,1.064,206.299,-29.297,30.396
-0.334,-0.246,1.073,175.232,-15.747,24.841
-0.377,-0.233,1.088,142.639,-11.292,19.775
-0.364,-0.191,0.968,116.638,-10.376,17.761
-0.343,-0.163,0.749,108.093,-15.015,18.372
-0.329,-0.101,0.552,82.275,-18.311,16.541
-0.344,-0.077,0.550,55.725,-23.193,13.245
-0.408,-0.111,0.642,33.875,-26.794,6.897
-0.456,-0.130,0.747,13.306,-28.564,-1.526
-0.473,-0.108,0.777,-1.953,-30.518,-10.254
-0.446,-0.123,0.829,-18.372,-33.813,-17.578
-0.454,-0.161,0.841,-34.119,-37.048,-23.071
-0.451,-0.182,0.840,-41.565,-39.856,-24.963
-0.427,-0.195,0.833,-40.466,-43.213,-25.146
-0.385,-0.184,0.869,-37.170,-47.791,-25.085
-0.360,-0.167,0.950,-35.278,-52.551,-26.062
-0.360,-0.172,1.005,-34.546,-55.725,-28.137
-0.361,-0.193,0.991,-35.828,-56.641,-31.799
-0.363,-0.164,0.975,-39.368,-57.373,-37.109
-0.348,-0.153,1.000,-39.246,-58.411,-41.748
-0.377,-0.192,1.038,-36.499,-57.861,-44.678
-0.404,-0.204,1.072,-37.781,-56.702,-45.898
-0.447,-0.088,1.092,-39.856,-54.260,-45.776
-0.413,-0.159,1.110,-41.199,-51.758,-46.875
-0.440,-0.069,1.140,-39.917,-47.729,-45.349
-0.455,-0.026,1.147,-40.955,-43.823,-45.898
-0.473,0.003,1.184,-44.067,-40.466,-47.302
-0.477,0.013,1.245,-49.194,-36.743,-49.561
-0.486,-0.006,1.288,-50.598,-33.997,-52.124
-0.514,-0.050,1.348,-53.955,-32.043,-54.993
-0.511,-0.096,1.378,-75.317,-28.442,-58.655
-0.527,-0.194,1.374,-85.510,-26.489,-61.707
-0.553,-0.284,1.349,-103.394,-22.156,-60.181
-0.540,-0.322,1.433,-139.771,-14.160,-57.312
-0.512,-0.463,1.478,-199.829,-6.775,-57.251
-0.482,-0.505,1.452,-267.883,-1.709,-56.885
-0.359,-0.424,1.263,-298.767,2.502,-56.885
-0.226,-0.396,1.231,-316.101,3.540,-59.204
-0.130,-0.542,0.940,-329.651,4.578,-60.486
-0.029,-0.547,0.795,-340.027,2.441,-54.321
0.090,-0.449,0.733,-346.252,-1.099,-44.189
0.076,-0.195,0.571,-347.473,-5.371,-31.433
0.062,0.052,0.529,-344.543,-12.329,-22.644
0.019,0.252,0.521,-312.744,-21.118,-16.663
-0.037,0.235,0.596,-291.321,-28.931,-10.620
-0.170,0.141,0.609,-281.982,-36.377,2.258
-0.294,-0.026,0.547,-258.240,-45.776,19.531
-0.392,-0.031,0.694,-241.089,-53.589,37.598
-0.509,0.004,0.801,-208.130,-54.688,53.345
-0.561,-0.028,0.719,-184.692,-54.077,63.171
-0.604,0.070,0.636,-168.701,-52.063,70.740
-0.645,0.261,0.441,-163.208,-52.185,74.585
-0.694,0.607,0.338,-170.776,-53.650,72.144
-0.745,0.953,0.260,-157.410,-50.598,65.369
-0.743,1.222,0.212,-139.587,-48.218,55.603
-0.777,1.414,0.208,-121.094,-44.983,45.166
-0.751,1.479,0.264,-95.520,-37.842,39.063
-0.711,1.406,0.314,-64.697,-29.785,35.339
-0.643,1.320,0.318,-44.556,-29.297,30.090
-0.596,1.239,0.375,-29.114,-28.931,26.672
-0.624,1.185,0.428,-17.029,-29.663,23.621
-0.609,1.108,0.495,-0.488,-28.015,22.095
-0.609,1.032,0.542,13.489,-24.231,19.165
-0.631,0.977,0.556,24.719,-18.494,13.611
-0.634,0.948,0.546,33.752,-12.451,7.202
-0.608,0.971,0.495,46.326,-7.996,0.610
-0.613,1.059,0.437,61.829,-7.385,-6.409
-0.618,1.243,0.367,97.046,-8.057,-15.442
-0.585,1.348,0.281,143.188,-6.592,-25.208
-0.546,1.504,0.194,196.411,-4.700,-33.691
-0.480,1.436,0.141,247.864,-3.967,-44.128
-0.450,1.288,0.069,297.546,-5.493,-51.025
-0.437,1.028,0.032,336.426,-14.404,-51.575
-0.441,0.770,0.028,359.314,-32.776,-48.096
-0.480,0.561,-0.035,388.550,-57.129,-40.405
-0.520,0.241,0.011,413.940,-86.121,-31.982
-0.547,-0.039,0.210,441.040,-109.375,-14.954
-0.632,-0.268,0.283,474.548,-123.108,5.005
-0.731,-0.661,0.474,467.102,-133.240,24.414
-0.777,-0.903,0.625,469.971,-126.465,49.988
-0.873,-0.981,0.743,449.280,-109.314,67.017
-0.906,-0.903,0.899,371.887,-77.759,77.332
-0.948,-0.803,0.779,279.846,-28.503,80.322
-0.918,-0.749,0.726,171.509,13.428,75.867
-0.846,-0.548,0.623,87.463,47.180,71.228
-0.761,-0.372,0.562,23.621,75.256,66.345
-0.697,-0.192,0.434,-20.752,95.825,61.340
-0.654,0.096,0.450,-35.400,100.220,60.547
-0.589,0.385,0.597,-31.555,93.079,57.617
-0.495,0.496,0.539,-1.709,83.435,49.316
-0.425,0.369,0.568,20.874,69.702,38.269
-0.401,0.279,0.852,25.330,50.354,30.884
-0.397,0.155,0.885,8.606,39.917,23.804
-0.394,0.214,0.958,-4.700,31.982,17.761
-0.364,0.280,0.985,-19.470,28.625,9.338
-0.332,0.114,0.923,-36.194,27.771,-0.366
-0.359,-0.047,0.837,-31.128,22.583,-1.587
-0.424,-0.184,0.769,-25.330,16.235,1.709
-0.444,-0.190,0.765,-18.799,10.376,2.136
-0.414,-0.099,0.782,-11.047,7.446,0.549
-0.412,0.001,0.909,-5.554,5.188,-2.991
-0.423,0.027,1.003,-7.935,2.930,-8.606
-0.414,0.084,0.944,-16.235,-3.174,-13.367
-0.419,0.018,0.908,-26.489,-11.780,-19.897
-0.446,-0.051,0.876,-36.377,-18.372,-22.095
-0.454,-0.050,0.925,-45.959,-22.705,-22.461
-0.495,-0.067,0.986,-54.260,-26.306,-22.949
-0.552,-0.130,1.011,-61.523,-27.588,-21.973
-0.578,-0.151,1.147,-62.988,-29.541,-20.569
-0.615,-0.183,1.227,-70.190,-29.785,-20.752
-0.605,-0.192,1.348,-75.928,-30.579,-20.142
-0.612,-0.259,1.376,-89.050,-29.541,-19.897
-0.681,-0.308,1.418,-115.662,-26.123,-17.639

-0.146,-0.465,0.669,263.855,-79.346,11.841
-0.166,-0.888,0.568,248.169,-76.477,22.217
-0.155,-0.982,0.721,233.948,-84.290,34.485
-0.159,-0.745,0.815,238.770,-72.998,38.879
-0.195,-0.482,0.904,225.281,-47.729,34.851
-0.261,-0.316,1.064,206.299,-29.297,30.396
-0.334,-0.246,1.073,175.232,-15.747,24.841
-0.377,-0.233,1.088,142.639,-11.292,19.775
-0.364,-0.191,0.968,116.638,-10.376,17.761
-0.343,-0.163,0.749,108.093,-15.015,18.372
-0.329,-0.101,0.552,82.275,-18.311,16.541
-0.344,-0.077,0.550,55.725,-23.193,13.245
-0.408,-0.111,0.642,33.875,-26.794,6.897
-0.456,-0.130,0.747,13.306,-28.564,-1.526
-0.473,-0.108,0.777,-1.953,-30.518,-10.254
-0.446,-0.123,0.829,-18.372,-33.813,-17.578
-0.454,-0.161,0.841,-34.119,-37.048,-23.071
-0.451,-0.182,0.840,-41.565,-39.856,-24.963
-0.427,-0.195,0.833,-40.466,-43.213,-25.146
-0.385,-0.184,0.869,-37.170,-47.791,-25.085
-0.360,-0.167,0.950,-35.278,-52.551,-26.062
-0.360,-0.172,1.005,-34.546,-55.725,-28.137
-0.361,-0.193,0.991,-35.828,-56.641,-31.799
-0.363,-0.164,0.975,-39.368,-57.373,-37.109
-0.348,-0.153,1.000,-39.246,-58.411,-41.748
-0.377,-0.192,1.038,-36.499,-57.861,-44.678
-0.404,-0.204,1.072,-37.781,-56.702,-45.898
-0.447,-0.088,1.092,-39.856,-54.260,-45.776
-0.413,-0.159,1.110,-41.199,-51.758,-46.875
-0.440,-0.069,1.140,-39.917,-47.729,-45.349
-0.455,-0.026,1.147,-40.955,-43.823,-45.898
-0.473,0.003,1.184,-44.067,-40.466,-47.302
-0.477,0.013,1.245,-49.194,-36.743,-49.561
-0.486,-0.006,1.288,-50.598,-33.997,-52.124
-0.514,-0.050,1.348,-53.955,-32.043,-54.993
-0.511,-0.096,1.378,-75.317,-28.442,-58.655
-0.527,-0.194,1.374,-85.510,-26.489,-61.707
-0.553,-0.284,1.349,-103.394,-22.156,-60.181
-0.540,-0.322,1.433,-139.771,-14.160,-57.312
-0.733,1.512,0.262,-19.287,6.897,3.052
-0.704,1.605,0.271,18.616,6.775,-4.578
-0.691,1.599,0.223,62.317,3.357,-15.259
-0.681,1.535,0.168,99.915,-3.540,-28.503
-0.652,1.493,0.108,136.475,-11.780,-41.870
-0.639,1.464,0.059,177.429,-19.592,-53.406
-0.635,1.427,0.016,220.337,-29.480,-62.439
-0.656,1.303,-0.094,269.226,-37.537,-69.153
-0.661,1.097,-0.173,306.396,-46.631,-73.914
-0.667,0.877,-0.211,329.956,-58.655,-73.608
-0.656,0.665,-0.266,356.750,-72.510,-69.885
-0.706,0.272,-0.176,372.192,-83.740,-67.871
-0.687,-0.018,-0.066,382.141,-96.619,-52.551
-0.718,-0.255,0.066,393.311,-107.361,-34.058
-0.760,-0.500,0.099,403.503,-107.910,-17.639
-0.765,-0.791,0.469,363.159,-102.905,0.610
-0.772,-0.870,0.525,355.896,-84.290,18.616
-0.797,-0.835,0.634,314.819,-62.744,32.288
-0.776,-0.733,0.670,269.165,-35.522,41.504
-0.778,-0.668,0.687,208.435,-14.832,42.542
-0.752,-0.516,0.791,160.156,3.113,42.847
-0.753,-0.355,0.706,134.277,24.292,43.396
-0.764,-0.213,0.614,116.638,41.626,42.480
-0.729,-0.129,0.670,94.543,49.500,37.964
-0.670,-0.009,0.778,78.308,53.223,36.560
-0.626,0.088,0.860,73.547,53.833,37.354
-0.604,0.134,0.900,57.739,53.894,39.795
-0.571,0.173,0.930,30.396,51.697,41.199
-0.552,0.297,0.872,4.822,49.683,39.551
-0.485,0.349,0.822,-16.602,47.729,32.349
-0.455,0.323,0.925,-25.330,42.664,24.536
-0.465,0.201,0.949,-31.494,37.903,17.578
-0.493,0.089,0.886,-37.415,34.546,11.719
-0.492,0.002,0.807,-37.720,30.090,7.751
-0.493,0.011,0.763,-30.151,23.804,6.287
-0.492,0.004,0.687,-19.653,17.517,4.089
-0.522,-0.016,0.662,-14.771,10.864,2.686
-0.562,-0.025,0.661,-13.611,4.517,2.686
-0.600,-0.000,0.682,-12.878,0.305,2.441
-0.634,0.025,0.724,-13.550,-1.892,1.831
-0.657,-0.008,0.742,-17.700,-3.113,0.305
-0.676,0.039,0.768,-25.330,-2.869,0.061
-0.672,0.028,0.766,-30.701,-3.113,0.366
-0.648,0.026,0.754,-41.138,-3.662,0.244
-0.645,0.034,0.824,-57.373,-3.906,-1.221
-0.670,0.042,0.974,-82.275,-2.136,-3.967
-0.698,0.004,1.047,-108.398,1.953,-4.944
-0.725,-0.038,1.131,-135.437,5.249,-5.188
-0.807,-0.046,1.230,-158.203,3.784,-4.761
-0.821,-0.029,1.184,-173.584,4.211,-2.930
-0.833,0.039,1.032,-169.800,2.869,-1.587
-0.853,0.172,1.025,-162.231,-3.052,-3.052
-0.740,0.392,1.091,-148.499,-2.625,-9.216
-0.618,0.571,1.195,-135.925,6.714,-26.489
-0.582,0.387,1.410,-137.878,14.832,-39.978
-0.461,0.099,1.437,-181.030,23.315,-42.542
-0.532,-0.670,1.272,-241.699,37.231,-42.603
-0.426,-0.636,1.089,-289.001,36.865,-18.066
-0.355,-0.903,0.737,-315.918,42.847,-6.104
-0.266,-1.142,0.181,-324.158,45.715,7.324
-0.313,-0.956,-0.050,-322.266,39.551,26.306
-0.420,-0.410,-0.214,-290.466,32.959,39.246
-0.524,0.107,-0.329,-252.502,20.203,43.823
-0.608,0.445,-0.213,-238.831,7.263,46.936
-0.645,0.727,-0.085,-211.487,-3.540,53.467
-0.695,0.919,-0.048,-173.645,-11.169,57.068
-0.748,1.126,-0.017,-144.043,-18.616,55.481
-0.784,1.287,0.074,-115.112,-22.644,50.964
-0.839,1.399,0.117,-82.581,-23.987,44.373
-0.842,1.364,0.176,-57.129,-23.437,36.377
-0.824,1.246,0.177,-36.499,-23.987,24.719
-0.801,1.134,0.200,-17.822,-20.874,15.137
-0.740,1.021,0.266,1.099,-15.503,7.080
-0.694,0.940,0.336,19.714,-12.878,1.282
-0.641,0.867,0.390,33.081,-12.207,0.610
-0.625,0.858,0.388,50.537,-12.390,2.075
-0.606,0.826,0.388,62.988,-15.869,-0.427
-0.595,0.828,0.366,68.298,-21.301,-3.540
-0.593,0.829,0.367,71.655,-23.437,-7.996
-0.587,0.811,0.365,75.867,-20.874,-13.672

-0.159,-0.745,0.815,238.770,-72.998,38.879
-0.195,-0.482,0.904,225.281,-47.729,34.851
-0.261,-0.316,1.064,206.299,-29.297,30.396
-0.334,-0.246,1.073,175.232,-15.747,24.841
-0.377,-0.233,1.088,142.639,-11.292,19.775
-0.364,-0.191,0.968,116.638,-10.376,17.761
-0.343,-0.163,0.749,108.093,-15.015,18.372
-0.329,-0.101,0.552,82.275,-18.311,16.541
-0.344,-0.077,0.550,55.725,-23.193,13.245
-0.408,-0.111,0.642,33.875,-26.794,6.897
-0.456,-0.130,0.747,13.306,-28.564,-1.526
-0.473,-0.108,0.777,-1.953,-30.518,-10.254
-0.446,-0.123,0.829,-18.372,-33.813,-17.578
-0.454,-0.161,0.841,-34.119,-37.048,-23.071
-0.451,-0.182,0.840,-41.565,-39.856,-24.963
-0.427,-0.195,0.833,-40.466,-43.213,-25.146
-0.385,-0.184,0.869,-37.170,-47.791,-25.085
-0.360,-0.167,0.950,-35.278,-52.551,-26.062
-0.360,-0.172,1.005,-34.546,-55.725,-28.137
-0.361,-0.193,0.991,-35.828,-56.641,-31.799
-0.363,-0.164,0.975,-39.368,-57.373,-37.109
-0.348,-0.153,1.000,-39.246,-58.411,-41.748
-0.377,-0.192,1.038,-36.499,-57.861,-44.678
-0.404,-0.204,1.072,-37.781,-56.702,-45.898
-0.447,-0.088,1.092,-39.856,-54.260,-45.776
-0.413,-0.159,1.110,-41.199,-51.758,-46.875
-0.440,-0.069,1.140,-39.917,-47.729,-45.349
-0.455,-0.026,1.147,-40.955,-43.823,-45.898
-0.473,0.003,1.184,-44.067,-40.466,-47.302
-0.477,0.013,1.245,-49.194,-36.743,-49.561
-0.486,-0.006,1.288,-50.598,-33.997,-52.124
-0.514,-0.050,1.348,-53.955,-32.043,-54.993
-0.511,-0.096,1.378,-75.317,-28.442,-58.655
-0.527,-0.194,1.374,-85.510,-26.489,-61.707
-0.553,-0.284,1.349,-103.394,-22.156,-60.181
-0.540,-0.322,1.433,-139.771,-14.160,-57.312
-0.733,1.512,0.262,-19.287,6.897,3.052
-0.630,0.563,0.007,-59.814,95.215,57.068
-0.579,0.718,0.517,-87.524,69.397,33.508
-0.641,0.757,0.901,-92.102,62.805,14.771
-0.647,0.666,1.013,-80.017,69.275,1.465
-0.629,0.526,1.192,-71.289,63.049,-2.563
-0.579,0.415,1.177,-65.674,58.777,-2.563
-0.538,0.399,1.099,-63.049,54.321,0.793
-0.478,0.386,0.942,-66.284,49.561,4.883
-0.426,0.275,0.766,-75.562,44.617,7.629
-0.418,0.122,0.528,-79.834,36.316,8.484
-0.413,0.103,0.474,-64.575,27.100,8.728
-0.433,0.111,0.585,-44.739,21.057,7.080
-0.456,0.161,0.723,-31.860,18.372,3.174
-0.458,0.212,0.854,-20.935,16.541,-0.610
-0.450,0.249,0.919,-10.010,16.418,-4.333
-0.488,0.249,1.009,4.822,13.977,-6.287
-0.515,0.150,1.043,5.066,12.085,-5.310
-0.544,0.099,1.057,5.249,11.108,0.122
-0.548,0.064,0.999,8.606,12.329,6.042
-0.531,0.029,0.870,8.911,13.916,9.949
-0.506,-0.003,0.804,2.197,13.916,12.756
-0.496,0.027,0.763,-2.808,14.709,13.916
-0.453,0.132,0.808,0.488,15.625,12.024
-0.416,0.197,0.817,1.648,13.123,9.277
-0.422,0.192,0.844,4.883,10.071,6.531
-0.412,0.203,0.918,12.146,7.141,3.113
-0.395,0.217,0.997,9.460,3.601,-1.343
-0.380,0.243,1.008,-2.930,-0.793,-4.944
-0.405,0.272,1.109,-19.714,-5.615,-8.118
-0.442,0.153,1.212,-44.861,-9.583,-12.634
-0.501,0.094,1.278,-72.327,-16.296,-14.404
-0.588,0.142,1.564,-86.975,-25.208,-14.709
-0.639,0.311,1.826,-74.341,-31.616,-13.245
-0.752,0.057,1.707,-86.914,-37.476,-13.306
-0.781,-0.188,1.663,-129.272,-40.344,-7.996
-0.663,-0.213,1.436,-199.463,-37.170,-10.559
-0.535,-0.305,1.601,-246.521,-30.273,-26.367
-0.318,0.049,1.070,-214.417,-7.080,-34.485
-0.105,-0.183,0.604,-206.726,2.991,-47.791
0.161,-0.578,-0.187,-236.572,-8.484,-28.198
0.016,-0.754,-0.227,-286.621,-27.222,-7.568
-0.264,-0.347,0.111,-299.133,-46.082,14.832
-0.442,0.142,0.127,-248.596,-53.772,18.921
-0.575,0.442,-0.069,-206.421,-66.772,15.320
-0.663,0.542,-0.103,-190.247,-81.299,16.846
-0.765,0.552,-0.030,-170.288,-88.806,21.118
-0.742,0.564,-0.016,-146.240,-88.806,26.062
-0.717,0.657,0.069,-125.671,-88.318,31.921
-0.754,0.580,0.238,-104.553,-81.665,40.405
-0.845,0.493,0.381,-98.022,-70.313,48.462
-0.891,0.528,0.458,-105.225,-59.753,49.377
-0.928,0.598,0.484,-114.990,-46.082,45.532
-0.940,0.582,0.429,-121.277,-32.227,42.297
-0.839,0.748,0.411,-126.526,-22.888,37.720
-0.826,0.878,0.326,-114.685,-10.315,25.513
-0.837,0.904,0.278,-93.872,3.540,13.245
-0.795,0.903,0.256,-77.087,9.338,6.836
-0.746,0.916,0.242,-57.434,12.451,3.784
-0.713,0.918,0.251,-41.199,16.357,4.211
-0.705,0.936,0.251,-30.151,18.311,2.747
-0.716,0.990,0.261,-19.653,21.729,-1.221
-0.715,1.078,0.249,-3.967,24.658,-7.996
-0.698,1.124,0.220,12.268,25.391,-16.663
-0.687,1.197,0.195,35.156,21.912,-26.062
-0.707,1.219,0.178,52.368,13.672,-38.513
-0.690,1.271,0.158,75.073,10.498,-50.903
-0.650,1.342,0.155,108.765,9.827,-59.692
-0.619,1.395,0.117,152.893,7.996,-68.054
-0.600,1.375,0.125,205.078,4.333,-75.500
-0.578,1.290,0.098,263.550,-2.380,-79.346
-0.591,1.146,-0.099,319.214,-9.033,-75.989
-0.603,0.719,0.089,335.022,-21.240,-71.655
-0.585,0.410,0.093,357.910,-35.034,-59.082
-0.617,0.150,0.185,371.948,-46.204,-45.715
-0.617,0.082,0.350,390.625,-52.734,-30.151
-0.654,-0.052,0.262,416.321,-48.096,-14.038
-0.638,-0.349,0.485,378.113,-49.561,-1.404
-0.656,-0.300,0.367,354.004,-44.189,14.893
-0.730,-0.498,0.630,331.360,-29.358,30.579
-0.714,-0.691,0.524,278.320,-15.137,41.931
-0.661,-0.770,0.605,201.965,-1.099,44.739
-0.531,-0.760,0.663,145.752,19.653,47.852

-0.428,-0.156,1.007,-82.397,24.841,-28.076
-0.389,-0.217,0.973,-88.623,23.254,-23.010
-0.358,-0.186,0.932,-93.079,22.644,-16.174
-0.323,-0.123,0.967,-100.647,21.851,-15.930
-0.302,-0.065,0.909,-106.934,24.719,-17.456
-0.277,0.001,0.824,-109.131,27.588,-18.555
-0.255,0.070,0.808,-105.896,26.184,-18.555
-0.241,0.100,0.736,-105.408,25.635,-18.982
-0.241,0.080,0.743,-108.826,24.292,-19.592
-0.236,0.123,0.713,-112.000,23.987,-17.822
-0.234,0.196,0.676,-106.262,24.719,-13.367
-0.237,0.181,0.696,-99.182,23.743,-9.583
-0.238,0.206,0.688,-85.815,23.132,-5.859
-0.267,0.252,0.707,-73.669,19.287,-2.686
-0.315,0.289,0.700,-67.688,15.869,-1.648
-0.353,0.335,0.665,-62.561,13.306,-0.671
-0.381,0.359,0.630,-58.167,10.132,-0.366
-0.397,0.379,0.618,-51.697,6.897,-0.061
-0.411,0.368,0.628,-44.739,3.967,-0.671
-0.420,0.353,0.645,-32.410,1.770,-0.916
-0.435,0.336,0.680,-24.780,0.732,-0.122
-0.448,0.332,0.708,-18.616,0.671,1.587
-0.434,0.305,0.727,-14.465,1.343,3.967
-0.474,0.321,0.737,-12.878,2.625,7.812
-0.483,0.344,0.689,-12.634,2.747,6.775
-0.485,0.427,0.597,-9.949,2.014,6.653
-0.489,0.550,0.507,-5.005,-1.038,2.930
-0.497,0.694,0.422,4.700,-4.395,-4.150
-0.492,0.810,0.354,23.926,-8.240,-12.634
-0.491,0.827,0.331,48.218,-13.794,-20.386
-0.445,0.821,0.287,79.163,-21.667,-24.902
-0.408,0.692,0.243,111.694,-29.663,-26.123
-0.399,0.498,0.253,139.771,-40.405,-22.644
-0.400,0.356,0.321,171.143,-49.438,-13.306
-0.394,0.103,0.047,198.059,-49.194,-4.089
-0.364,-0.231,0.031,218.994,-58.716,11.414
-0.385,-0.452,0.214,216.003,-74.524,28.442
-0.456,-0.596,0.397,207.947,-78.430,38.879
-0.548,-0.733,0.847,185.425,-74.646,44.678
-0.717,-0.759,1.584,159.302,-54.382,49.072
-0.771,-0.582,1.519,164.551,0.305,56.702
-0.665,-0.401,1.514,155.701,47.302,68.909
-0.400,-0.282,1.608,116.272,61.340,72.571
-0.212,-0.078,1.482,81.116,74.341,79.285
-0.223,0.161,1.119,48.828,77.942,78.430
-0.110,0.042,0.778,13.733,68.237,60.730
-0.222,-0.211,0.625,-4.089,56.641,53.711
-0.335,-0.265,0.844,-27.344,51.331,48.828
-0.388,-0.205,1.105,-49.438,53.650,43.640
-0.436,-0.168,1.164,-57.495,55.664,40.405
-0.499,-0.123,1.138,-45.593,48.645,40.588
-0.472,-0.087,1.111,-32.898,36.011,40.894
-0.425,-0.016,1.081,-30.334,26.550,39.612
-0.360,0.102,1.086,-38.452,19.958,34.424
-0.311,0.208,1.146,-50.964,13.977,26.245
-0.309,0.205,1.154,-57.800,7.996,17.029
-0.337,0.141,1.121,-57.068,1.953,6.958
-0.384,0.075,1.107,-51.025,-6.714,-1.892
-0.424,-0.010,1.138,-40.344,-17.761,-7.935
-0.458,-0.077,1.141,-25.452,-27.161,-11.963
-0.481,-0.115,1.131,-11.536,-35.950,-13.245
-0.490,-0.099,1.108,-1.648,-44.128,-12.207
-0.503,-0.083,1.076,3.662,-48.279,-11.169
-0.523,-0.087,1.086,3.052,-49.011,-11.414
-0.529,-0.054,1.086,4.761,-44.922,-11.230
-0.528,-0.011,1.115,16.968,-33.997,-12.695
-0.488,0.054,1.089,23.010,-21.851,-16.907
-0.451,0.085,1.115,25.146,-13.672,-21.667
-0.424,0.087,1.108,27.649,-3.052,-24.902
-0.382,0.023,1.106,25.024,6.897,-28.137
-0.330,0.000,1.059,9.460,11.963,-31.799
-0.267,-0.120,1.015,-12.878,17.883,-34.790
-0.309,-0.209,0.998,-34.241,16.907,-36.133
-0.291,-0.333,0.978,-52.429,16.174,-34.241
-0.258,-0.382,0.937,-73.425,16.479,-30.090
-0.258,-0.295,0.993,-88.013,15.503,-26.245
-0.236,-0.200,1.018,-100.281,18.860,-26.672
-0.201,-0.118,1.061,-109.192,24.963,-30.945
-0.172,-0.055,1.027,-110.901,31.860,-32.959
-0.160,-0.013,1.052,-112.366,33.386,-32.715
-0.154,0.009,0.998,-113.464,33.936,-33.020
-0.140,0.017,0.941,-113.464,34.790,-31.433
-0.121,0.028,0.842,-108.643,35.461,-28.198
-0.090,0.020,0.762,-101.196,33.081,-24.292
-0.082,-0.003,0.667,-97.778,29.358,-19.592
-0.099,0.002,0.642,-92.590,25.635,-13.855
-0.126,0.009,0.626,-89.478,24.170,-8.545
-0.163,0.044,0.632,-93.567,20.020,-3.967
-0.214,0.120,0.635,-98.999,18.188,-0.183
-0.247,0.226,0.629,-102.661,17.639,2.075
-0.255,0.315,0.620,-101.318,18.311,3.723
-0.284,0.397,0.614,-96.252,17.334,6.470
-0.295,0.450,0.603,-90.515,15.503,9.094
-0.303,0.485,0.611,-83.923,13.184,12.024
-0.314,0.529,0.618,-74.951,10.803,14.648
-0.323,0.571,0.632,-61.829,7.385,15.015
-0.340,0.630,0.663,-45.166,3.052,14.587
-0.376,0.665,0.693,-25.452,-1.038,14.404
-0.397,0.653,0.713,-6.897,-4.272,14.099
-0.408,0.587,0.755,7.812,-6.470,14.160
-0.425,0.506,0.795,18.066,-6.775,13.977
-0.427,0.455,0.821,23.926,-6.104,13.855
-0.432,0.433,0.821,25.452,-4.822,12.878
-0.433,0.419,0.786,29.297,-4.333,10.925
-0.432,0.420,0.724,35.461,-4.883,6.836
-0.445,0.472,0.661,44.922,-6.775,0.488
-0.440,0.581,0.644,57.922,-8.545,-4.700
-0.405,0.697,0.605,79.041,-11.047,-9.094
-0.363,0.740,0.515,103.455,-16.785,-13.245
-0.363,0.609,0.470,124.207,-24.170,-13.611
-0.376,0.362,0.474,148.071,-33.081,-8.484
-0.378,0.102,0.393,178.162,-40.894,-0.610
-0.370,-0.153,0.435,199.524,-45.959,10.681
-0.281,-0.456,0.489,199.768,-52.979,23.743
-0.267,-0.846,0.230,193.604,-52.307,36.987
-0.445,-0.874,0.258,170.715,-57.556,50.842
-0.441,-0.698,1.231,120.361,-62.744,56.885
-0.404,-0.456,1.299,99.365,-28.381,57.434
-0.410,-0.226,1.277,94.116,11.414,60.791

-0.521,0.242,1.045,84.717,-17.212,-21.484
-0.501,0.170,1.014,110.046,-10.925,-14.587
-0.455,0.042,0.910,124.756,-3.235,-7.202
-0.398,-0.013,0.846,126.831,0.305,0.122
-0.355,0.091,0.706,131.653,4.028,8.240
-0.327,0.204,0.700,140.564,6.531,15.137
-0.270,0.156,0.558,154.175,8.789,19.287
-0.279,0.010,0.554,155.579,6.287,25.085
-0.251,-0.057,0.621,152.893,-0.305,32.043
-0.216,-0.170,0.638,143.982,-2.075,36.682
-0.211,-0.289,0.768,136.353,-3.723,41.992
-0.223,-0.240,0.959,128.113,-2.258,47.241
-0.209,-0.100,0.941,119.812,7.507,48.462
-0.185,0.020,0.878,105.225,15.320,45.166
-0.198,0.044,0.898,93.567,15.198,41.077
-0.258,-0.020,0.856,85.876,12.146,38.391
-0.317,-0.131,0.756,79.224,8.972,36.316
-0.330,-0.094,0.825,73.792,5.310,36.072
-0.324,-0.081,0.867,57.434,5.676,35.278
-0.346,-0.079,0.924,35.095,7.446,33.081
-0.331,-0.107,0.906,12.756,9.705,28.503
-0.349,-0.172,0.863,-13.367,11.169,23.193
-0.340,-0.123,0.828,-35.034,11.536,19.958
-0.354,-0.106,0.846,-48.767,9.705,17.212
-0.398,-0.193,0.808,-52.551,5.188,13.916
-0.458,-0.226,0.788,-52.368,-1.160,11.047
-0.454,-0.265,0.799,-50.659,-7.446,8.179
-0.439,-0.392,0.823,-51.147,-13.062,6.470
-0.445,-0.472,0.864,-53.650,-17.029,7.263
-0.441,-0.478,0.896,-55.664,-18.738,9.521
-0.435,-0.436,0.965,-58.044,-20.020,11.841
-0.433,-0.377,1.042,-62.561,-20.020,13.428
-0.433,-0.337,1.120,-69.946,-19.958,14.465
-0.468,-0.318,1.181,-77.393,-19.470,15.686
-0.541,-0.311,1.339,-83.435,-18.860,17.517
-0.541,-0.237,1.328,-97.290,-16.479,19.043
-0.524,-0.048,1.072,-113.708,-14.771,17.883
-0.510,0.219,0.897,-126.770,-15.991,13.000
-0.547,0.302,1.022,-129.639,-16.235,4.211
-0.525,0.521,1.246,-120.728,-12.512,-5.615
-0.508,0.569,1.450,-117.371,-6.836,-18.616
-0.480,0.425,1.481,-124.146,4.639,-26.550
-0.399,0.519,1.381,-125.305,15.320,-24.719
-0.351,0.420,1.301,-115.601,16.357,-27.649
-0.292,0.108,1.284,-120.483,10.559,-28.381
-0.219,-0.067,1.164,-135.620,10.254,-21.057
-0.168,-0.050,1.099,-157.471,10.986,-12.878
-0.211,-0.233,1.022,-176.697,20.142,-10.132
-0.173,-0.421,0.927,-192.871,33.813,-3.601
-0.134,-0.530,0.562,-210.510,43.762,3.601
-0.139,-0.361,0.278,-218.750,43.945,11.047
-0.159,-0.096,0.198,-212.830,36.255,14.893
-0.208,0.067,0.173,-204.590,27.344,18.433
-0.267,0.245,0.222,-193.726,18.799,27.466
-0.339,0.310,0.237,-172.729,9.583,34.546
-0.401,0.414,0.263,-149.658,-1.404,38.574
-0.408,0.511,0.344,-128.113,-10.559,40.161
-0.426,0.567,0.436,-109.497,-16.846,41.260
-0.460,0.646,0.505,-91.248,-21.179,44.128
-0.468,0.689,0.561,-77.087,-22.949,44.312
-0.488,0.764,0.607,-65.430,-21.057,41.443
-0.505,0.826,0.634,-54.016,-18.433,36.255
-0.515,0.884,0.649,-41.809,-14.648,31.616
-0.517,0.983,0.643,-28.564,-10.620,24.902
-0.513,1.115,0.630,-8.667,-7.202,16.663
-0.526,1.252,0.605,19.165,-4.700,9.155
-0.516,1.327,0.549,53.040,-5.981,-2.319
-0.514,1.363,0.475,92.285,-9.949,-15.076
-0.509,1.247,0.412,125.183,-14.526,-28.503
-0.469,1.123,0.370,149.658,-19.226,-37.842
-0.426,0.978,0.344,169.800,-26.428,-43.335
-0.399,0.757,0.349,178.589,-31.982,-46.631
-0.391,0.520,0.396,190.918,-35.950,-44.983
-0.417,0.360,0.438,207.214,-40.833,-39.429
-0.446,0.200,0.439,219.482,-43.884,-34.485
-0.463,0.078,0.505,222.229,-47.852,-27.222
-0.447,0.110,0.558,229.614,-48.889,-17.212
-0.389,0.068,0.423,238.831,-41.138,-10.925
-0.373,-0.027,0.568,228.088,-41.565,-6.165
-0.346,-0.127,0.500,222.839,-46.021,-1.038
-0.342,-0.257,0.607,214.172,-52.917,3.235
-0.393,-0.440,0.647,205.444,-56.702,10.315
-0.417,-0.574,0.799,193.115,-57.739,20.020
-0.457,-0.637,0.990,174.316,-55.359,30.212
-0.484,-0.535,1.150,158.752,-43.274,38.940
-0.471,-0.401,1.063,146.545,-18.921,42.786
-0.470,-0.319,1.022,114.441,-2.441,43.335
-0.468,-0.209,0.997,86.548,7.935,39.246
-0.456,-0.078,1.115,67.993,11.108,33.875
-0.430,-0.000,1.130,53.040,17.395,27.893
-0.410,0.030,1.235,37.415,20.081,23.010
-0.366,-0.138,1.142,12.695,19.104,15.503
-0.351,-0.014,1.046,-7.507,17.700,11.841
-0.336,0.048,0.976,-4.883,15.442,11.047
-0.307,0.047,0.936,-0.854,13.245,8.362
-0.327,-0.036,0.922,4.944,9.644,6.714
-0.361,-0.115,0.863,6.653,6.226,6.409
-0.391,-0.109,0.832,2.930,2.563,6.775
-0.415,-0.112,0.836,-3.235,-0.793,6.958
-0.463,-0.123,0.856,-7.080,-3.174,7.263
-0.482,-0.053,0.873,-4.456,-4.028,6.775
-0.485,-0.042,0.919,-3.357,-5.249,4.272
-0.497,-0.068,0.964,-5.127,-5.920,2.991
-0.503,-0.104,0.980,-9.460,-5.920,2.075
-0.493,-0.121,0.972,-13.733,-6.042,1.587
-0.442,-0.164,0.916,-16.113,-6.714,1.648
-0.452,-0.102,1.007,-19.958,-9.705,1.160
-0.406,-0.127,1.046,-23.743,-9.460,-0.244
-0.418,-0.149,1.033,-32.166,-8.240,-0.916
-0.446,-0.101,1.063,-43.396,-6.348,0.305
-0.411,-0.054,1.151,-56.641,-5.127,1.221
-0.394,-0.022,1.315,-70.557,-3.906,-0.488
-0.424,0.005,1.385,-89.905,0.854,-3.845
-0.462,0.004,1.408,-109.985,7.996,-5.005
-0.594,0.040,1.239,-128.418,15.808,-5.066
-0.802,-0.034,1.291,-138.000,20.996,-5.554
-0.915,-0.149,1.574,-149.414,24.292,-6.348
-0.881,-0.048,1.674,-160.706,25.330,-11.414
-0.714,-0.012,1.352,-168.396,36.133,-22.583

-0.398,-0.193,0.808,-52.551,5.188,13.916
-0.458,-0.226,0.788,-52.368,-1.160,11.047
-0.454,-0.265,0.799,-50.659,-7.446,8.179
-0.439,-0.392,0.823,-51.147,-13.062,6.470
-0.445,-0.472,0.864,-53.650,-17.029,7.263
-0.441,-0.478,0.896,-55.664,-18.738,9.521
-0.435,-0.436,0.965,-58.044,-20.020,11.841
-0.433,-0.377,1.042,-62.561,-20.020,13.428
-0.433,-0.337,1.120,-69.946,-19.958,14.465
-0.468,-0.318,1.181,-77.393,-19.470,15.686
-0.541,-0.311,1.339,-83.435,-18.860,17.517
-0.541,-0.237,1.328,-97.290,-16.479,19.043
-0.524,-0.048,1.072,-113.708,-14.771,17.883
-0.510,0.219,0.897,-126.770,-15.991,13.000
-0.547,0.302,1.022,-129.639,-16.235,4.211
-0.525,0.521,1.246,-120.728,-12.512,-5.615
-0.563,0.448,0.796,-29.724,-29.358,28.870
-0.578,0.516,0.745,-28.992,-25.513,23.804
-0.583,0.568,0.704,-23.987,-22.095,18.860
-0.604,0.603,0.700,-14.587,-19.165,13.428
-0.603,0.629,0.716,-6.531,-16.174,8.179
-0.605,0.647,0.735,7.385,-13.306,4.333
-0.605,0.637,0.740,19.409,-11.169,1.465
-0.596,0.655,0.723,31.555,-9.521,-1.221
-0.587,0.604,0.698,42.236,-8.057,-5.432
-0.552,0.588,0.645,51.758,-5.676,-9.521
-0.519,0.566,0.589,62.622,-4.639,-14.587
-0.493,0.575,0.551,75.684,-5.371,-20.264
-0.471,0.587,0.530,88.379,-7.080,-26.184
-0.443,0.592,0.509,103.394,-9.949,-31.006
-0.412,0.599,0.501,129.395,-15.869,-34.241
-0.411,0.569,0.535,161.072,-24.597,-35.522
-0.421,0.559,0.561,194.519,-33.447,-34.973
-0.415,0.644,0.535,230.652,-42.664,-34.424
-0.421,0.612,0.612,257.019,-51.941,-36.072
-0.391,0.478,0.543,313.599,-53.345,-32.532
-0.368,0.059,0.291,358.276,-54.993,-23.499
-0.412,-0.454,0.477,387.207,-74.341,-3.601
-0.468,-1.017,0.497,398.437,-82.703,21.667
-0.516,-1.503,0.588,365.051,-82.153,45.471
-0.527,-1.780,0.670,288.391,-70.801,68.970
-0.527,-1.718,0.719,184.875,-47.241,84.106
-0.589,-1.225,0.623,78.430,-17.456,83.313
-0.547,-0.508,0.661,0.854,7.263,71.716
-0.459,-0.013,0.797,-28.687,22.461,56.152
-0.443,0.230,1.054,-37.109,26.184,37.231
-0.455,0.102,1.154,-38.574,27.832,16.602
-0.430,-0.084,1.214,-41.870,25.452,5.615
-0.374,-0.195,1.237,-43.823,20.142,3.784
-0.349,-0.255,1.104,-53.528,18.738,6.897
-0.354,-0.146,1.120,-54.321,16.846,12.085
-0.352,-0.106,1.013,-47.363,15.442,13.184
-0.307,-0.158,0.928,-43.762,14.404,9.521
-0.273,-0.196,0.890,-34.363,11.169,6.165
-0.273,-0.208,0.837,-26.184,7.019,3.296
-0.297,-0.176,0.850,-18.860,2.747,0.793
-0.323,-0.157,0.861,-12.207,-1.160,-2.075
-0.360,-0.156,0.883,-7.446,-5.432,-4.333
-0.394,-0.166,0.886,-6.409,-8.789,-5.737
-0.427,-0.177,0.894,-4.700,-11.536,-6.775
-0.448,-0.202,0.890,-2.502,-13.733,-7.202
-0.477,-0.226,0.898,-0.122,-15.259,-6.653
-0.494,-0.269,0.910,-0.671,-16.296,-5.371
-0.482,-0.295,0.930,-6.958,-15.137,-5.432
-0.489,-0.292,0.943,-16.357,-13.550,-5.005
-0.477,-0.264,0.959,-27.893,-10.071,-5.371
-0.413,-0.265,0.983,-42.847,-7.141,-7.019
-0.399,-0.256,1.022,-63.599,-7.263,-8.667
-0.456,-0.295,1.069,-92.712,-6.226,-9.583
-0.508,-0.380,1.149,-123.596,-5.371,-9.888
-0.602,-0.401,1.228,-154.358,-6.226,-9.155
-0.751,-0.374,1.343,-186.279,-6.348,-6.775
-0.848,-0.235,1.515,-194.763,-2.808,-4.517
-0.830,0.012,1.629,-177.490,6.836,-12.146
-0.647,-0.066,1.371,-156.494,19.104,-30.945
-0.491,-0.204,1.230,-138.184,24.170,-36.560
-0.344,-0.128,1.116,-120.728,22.339,-33.997
-0.214,-0.134,1.043,-110.962,24.475,-35.278
-0.021,-0.241,0.831,-122.803,25.024,-36.377
0.065,-0.419,0.607,-142.578,27.161,-30.640
0.073,-0.438,0.322,-166.931,29.297,-11.230
-0.021,-0.252,0.087,-187.439,26.367,7.629
-0.183,-0.096,-0.011,-189.514,9.766,18.921
-0.334,-0.130,-0.016,-181.396,-11.169,26.184
-0.453,-0.219,0.121,-170.715,-27.344,34.363
-0.552,-0.166,0.228,-161.194,-37.476,43.762
-0.616,-0.062,0.335,-158.203,-44.678,48.828
-0.680,0.107,0.459,-152.954,-48.828,50.110
-0.739,0.336,0.591,-141.663,-45.715,52.795
-0.799,0.505,0.694,-142.334,-38.452,53.589
-0.825,0.719,0.737,-141.418,-29.907,49.316
-0.817,0.851,0.701,-129.639,-16.968,43.396
-0.782,0.864,0.638,-112.122,-5.920,36.316
-0.732,0.845,0.595,-92.285,0.977,29.297
-0.676,0.854,0.564,-71.960,4.333,23.804
-0.630,0.917,0.548,-56.702,3.357,17.883
-0.625,1.032,0.575,-36.804,0.549,10.864
-0.626,1.025,0.610,-9.094,-1.648,2.563
-0.624,0.963,0.620,15.747,-2.563,-5.859
-0.596,0.889,0.599,37.476,-3.540,-14.404
-0.572,0.835,0.569,56.030,-4.578,-22.339
-0.552,0.853,0.521,75.562,-7.935,-31.494
-0.540,0.867,0.490,94.727,-11.658,-42.236
-0.521,0.824,0.444,116.455,-14.038,-52.429
-0.504,0.783,0.430,131.775,-16.418,-57.922
-0.484,0.745,0.427,142.639,-19.531,-62.317
-0.475,0.649,0.393,162.598,-23.193,-65.552
-0.464,0.528,0.366,192.139,-30.518,-64.758
-0.445,0.363,0.357,218.872,-39.917,-62.073
-0.422,0.239,0.381,243.408,-49.988,-56.641
-0.460,0.111,0.466,252.625,-58.716,-50.415
-0.468,-0.132,0.465,270.630,-65.796,-42.480
-0.453,-0.334,0.514,283.936,-70.313,-30.457
-0.454,-0.552,0.673,280.640,-72.693,-19.226
-0.451,-0.772,0.716,278.076,-72.327,-4.272
-0.473,-0.860,0.772,252.563,-61.829,11.719
-0.514,-0.887,0.862,210.388,-49.622,23.743
-0.519,-0.939,0.949,158.813,-34.851,31.860
-0.568,-0.796,1.046,107.849,-17.395,38.696

-0.433,-0.337,1.120,-69.946,-19.958,14.465
-0.468,-0.318,1.181,-77.393,-19.470,15.686
-0.541,-0.311,1.339,-83.435,-18.860,17.517
-0.541,-0.237,1.328,-97.290,-16.479,19.043
-0.524,-0.048,1.072,-113.708,-14.771,17.883
-0.510,0.219,0.897,-126.770,-15.991,13.000
-0.547,0.302,1.022,-129.639,-16.235,4.211
-0.525,0.521,1.246,-120.728,-12.512,-5.615
-0.563,0.448,0.796,-29.724,-29.358,28.870
-0.578,0.516,0.745,-28.992,-25.513,23.804
-0.583,0.568,0.704,-23.987,-22.095,18.860
-0.604,0.603,0.700,-14.587,-19.165,13.428
-0.603,0.629,0.716,-6.531,-16.174,8.179
-0.605,0.647,0.735,7.385,-13.306,4.333
-0.605,0.637,0.740,19.409,-11.169,1.465
-0.596,0.655,0.723,31.555,-9.521,-1.221
-0.587,0.604,0.698,42.236,-8.057,-5.432
-0.552,0.588,0.645,51.758,-5.676,-9.521
-0.519,0.566,0.589,62.622,-4.639,-14.587
-0.493,0.575,0.551,75.684,-5.371,-20.264
-0.471,0.587,0.530,88.379,-7.080,-26.184
-0.443,0.592,0.509,103.394,-9.949,-31.006
-0.412,0.599,0.501,129.395,-15.869,-34.241
-0.411,0.569,0.535,161.072,-24.597,-35.522
-0.421,0.559,0.561,194.519,-33.447,-34.973
-0.415,0.644,0.535,230.652,-42.664,-34.424
-0.421,0.612,0.612,257.019,-51.941,-36.072
-0.391,0.478,0.543,313.599,-53.345,-32.532
-0.368,0.059,0.291,358.276,-54.993,-23.499
-0.412,-0.454,0.477,387.207,-74.341,-3.601
-0.468,-1.017,0.497,398.437,-82.703,21.667
-0.516,-1.503,0.588,365.051,-82.153,45.471
-0.517,-0.177,0.749,-10.559,-12.207,-1.831
-0.496,-0.177,0.785,-14.404,-13.306,-0.916
-0.486,-0.287,0.842,-18.188,-14.099,-0.122
-0.504,-0.391,0.942,-24.536,-13.550,4.150
-0.570,-0.384,1.034,-40.222,-11.230,11.414
-0.682,-0.192,1.133,-73.242,-3.845,17.456
-0.701,0.126,1.376,-107.178,8.057,16.663
-0.616,0.431,1.492,-141.663,19.531,3.784
-0.647,0.561,1.616,-178.650,27.771,-14.954
-0.731,0.193,1.676,-206.970,35.217,-22.522
-0.683,0.055,1.371,-205.688,40.833,-15.564
-0.567,-0.599,1.111,-218.384,41.992,-17.700
-0.354,-0.662,0.553,-217.468,43.457,-2.991
-0.233,-0.686,0.528,-222.656,42.847,-3.479
-0.130,-0.821,0.496,-224.426,42.358,3.662
-0.188,-0.686,0.502,-237.976,40.344,19.165
-0.355,-0.685,0.370,-234.436,33.020,24.597
-0.511,-0.606,0.353,-220.947,25.330,33.203
-0.676,-0.662,0.284,-212.769,20.691,46.509
-0.723,-0.374,0.250,-217.834,14.587,54.810
-0.675,-0.047,0.231,-221.497,8.240,55.664
-0.657,0.255,0.225,-224.365,2.686,56.580
-0.695,0.484,0.268,-222.900,0.366,57.556
-0.755,0.685,0.321,-209.961,2.136,58.044
-0.753,0.908,0.438,-189.453,6.897,52.979
-0.719,1.083,0.482,-160.706,13.428,44.189
-0.697,1.122,0.471,-134.399,15.442,35.767
-0.678,1.131,0.445,-109.619,12.939,26.672
-0.647,1.111,0.423,-82.275,9.094,17.273
-0.593,1.071,0.411,-56.396,4.089,10.010
-0.581,1.017,0.418,-32.410,-2.136,5.615
-0.596,0.925,0.449,-10.742,-8.545,3.540
-0.600,0.829,0.486,10.742,-13.672,0.488
-0.581,0.796,0.519,29.602,-17.700,-3.662
-0.573,0.749,0.520,45.349,-21.179,-9.338
-0.563,0.707,0.503,54.932,-24.414,-17.090
-0.552,0.723,0.488,63.110,-27.527,-24.475
-0.531,0.758,0.477,77.393,-28.870,-31.433
-0.507,0.799,0.497,90.027,-27.832,-36.865
-0.500,0.839,0.505,107.544,-26.306,-40.833
-0.496,0.873,0.484,129.272,-27.527,-45.166
-0.485,0.833,0.454,152.527,-31.128,-48.645
-0.471,0.742,0.403,170.105,-35.767,-51.025
-0.474,0.598,0.467,180.298,-42.969,-51.636
-0.462,0.439,0.495,206.055,-48.706,-49.072
-0.462,0.264,0.571,226.318,-52.124,-46.631
-0.464,0.108,0.567,247.070,-54.321,-43.274
-0.467,0.019,0.569,250.793,-60.608,-37.170
-0.475,-0.085,0.731,244.568,-67.688,-30.334
-0.497,-0.230,0.718,258.179,-64.148,-19.775
-0.506,-0.372,0.702,252.747,-64.819,-9.766
-0.529,-0.456,0.651,248.230,-64.880,0.122
-0.564,-0.579,0.646,224.060,-64.026,7.568
-0.600,-0.599,0.785,196.899,-63.477,17.578
-0.624,-0.678,0.820,173.340,-52.612,25.452
-0.670,-0.637,0.840,143.005,-38.635,31.494
-0.684,-0.433,0.931,118.225,-27.893,31.860
-0.674,-0.228,0.987,97.900,-13.733,27.466
-0.673,-0.058,1.003,84.351,-2.991,24.170
-0.681,0.013,1.046,76.294,1.831,21.240
-0.707,0.004,1.019,66.772,4.883,17.944
-0.707,0.017,0.963,61.523,6.592,15.137
-0.687,-0.002,0.894,54.077,8.179,11.902
-0.679,-0.018,0.833,47.363,7.446,10.254
-0.670,-0.008,0.820,51.392,5.859,8.911
-0.656,-0.010,0.776,58.655,6.470,7.996
-0.637,-0.043,0.782,56.824,6.165,7.324
-0.613,-0.042,0.782,48.401,7.141,6.531
-0.624,0.074,0.724,37.048,8.850,4.883
-0.529,-0.037,0.637,14.282,10.681,2.014
-0.548,-0.034,0.767,8.423,11.169,4.761
-0.578,-0.024,0.772,1.099,11.047,4.883
-0.583,0.013,0.756,-6.409,10.986,3.296
-0.570,-0.009,0.756,-9.033,8.667,0.549
-0.562,-0.081,0.731,-13.000,5.981,-1.953
-0.559,-0.132,0.706,-13.794,3.052,-3.235
-0.549,-0.159,0.714,-13.916,1.221,-2.930
-0.560,-0.169,0.766,-12.878,-0.854,-2.563
-0.569,-0.175,0.799,-12.817,-0.916,-2.747
-0.574,-0.174,0.828,-14.832,-0.549,-3.296
-0.567,-0.152,0.874,-19.714,0.183,-3.662
-0.563,-0.141,0.873,-26.794,1.587,-3.906
-0.569,-0.132,0.889,-32.166,2.808,-3.418
-0.548,-0.141,0.946,-36.987,3.479,-2.991
-0.573,-0.234,1.001,-50.354,5.371,-3.479
-0.625,-0.324,1.174,-75.378,8.179,-1.282
-0.654,-0.373,1.297,-104.675,13.000,4.883

-0.468,-0.318,1.181,-77.393,-19.470,15.686
-0.541,-0.311,1.339,-83.435,-18.860,17.517
-0.541,-0.237,1.328,-97.290,-16.479,19.043
-0.524,-0.048,1.072,-113.708,-14.771,17.883
-0.510,0.219,0.897,-126.770,-15.991,13.000
-0.547,0.302,1.022,-129.639,-16.235,4.211
-0.525,0.521,1.246,-120.728,-12.512,-5.615
-0.563,0.448,0.796,-29.724,-29.358,28.870
-0.578,0.516,0.745,-28.992,-25.513,23.804
-0.583,0.568,0.704,-23.987,-22.095,18.860
-0.604,0.603,0.700,-14.587,-19.165,13.428
-0.603,0.629,0.716,-6.531,-16.174,8.179
-0.605,0.647,0.735,7.385,-13.306,4.333
-0.605,0.637,0.740,19.409,-11.169,1.465
-0.596,0.655,0.723,31.555,-9.521,-1.221
-0.587,0.604,0.698,42.236,-8.057,-5.432
-0.552,0.588,0.645,51.758,-5.676,-9.521
-0.519,0.566,0.589,62.622,-4.639,-14.587
-0.493,0.575,0.551,75.684,-5.371,-20.264
-0.471,0.587,0.530,88.379,-7.080,-26.184
-0.443,0.592,0.509,103.394,-9.949,-31.006
-0.412,0.599,0.501,129.395,-15.869,-34.241
-0.411,0.569,0.535,161.072,-24.597,-35.522
-0.421,0.559,0.561,194.519,-33.447,-34.973
-0.415,0.644,0.535,230.652,-42.664,-34.424
-0.421,0.612,0.612,257.019,-51.941,-36.072
-0.391,0.478,0.543,313.599,-53.345,-32.532
-0.368,0.059,0.291,358.276,-54.993,-23.499
-0.412,-0.454,0.477,387.207,-74.341,-3.601
-0.468,-1.017,0.497,398.437,-82.703,21.667
-0.516,-1.503,0.588,365.051,-82.153,45.471
-0.517,-0.177,0.749,-10.559,-12.207,-1.831
-0.496,-0.177,0.785,-14.404,-13.306,-0.916
-0.486,-0.287,0.842,-18.188,-14.099,-0.122
-0.504,-0.391,0.942,-24.536,-13.550,4.150
-0.570,-0.384,1.034,-40.222,-11.230,11.414
-0.682,-0.192,1.133,-73.242,-3.845,17.456
-0.701,0.126,1.376,-107.178,8.057,16.663
-0.616,0.431,1.492,-141.663,19.531,3.784
-0.625,1.291,0.460,-77.271,4.883,14.465
-0.594,1.375,0.531,-34.546,2.502,6.287
-0.578,1.331,0.566,-0.671,-3.479,1.709
-0.582,1.230,0.580,28.442,-12.756,-3.357
-0.596,1.092,0.599,54.260,-20.264,-11.475
-0.614,0.991,0.603,78.125,-24.780,-20.630
-0.610,0.926,0.594,87.280,-26.611,-29.907
-0.604,0.896,0.560,101.135,-26.428,-39.063
-0.602,0.895,0.519,121.399,-25.024,-47.180
-0.596,0.997,0.482,151.306,-24.353,-53.711
-0.589,1.054,0.427,188.293,-23.926,-61.401
-0.569,0.860,0.451,215.149,-24.292,-72.388
-0.555,0.642,0.366,236.755,-25.208,-77.332
-0.547,0.415,0.508,225.159,-35.400,-73.242
-0.543,0.206,0.491,230.591,-46.570,-64.270
-0.538,-0.009,0.549,245.300,-52.917,-52.856
-0.564,-0.148,0.554,259.888,-53.650,-41.687
-0.557,-0.275,0.601,264.832,-49.500,-30.151
-0.552,-0.363,0.663,259.094,-45.105,-18.677
-0.571,-0.498,0.614,241.455,-38.147,-8.423
-0.595,-0.507,0.667,216.248,-31.982,0.488
-0.585,-0.498,0.665,191.895,-24.231,7.141
-0.520,-0.671,0.807,160.217,-13.123,12.817
-0.638,-0.567,0.709,135.010,-4.822,21.179
-0.674,-0.360,0.830,112.549,-3.418,19.043
-0.603,-0.217,1.000,94.604,4.822,13.245
-0.557,-0.032,1.037,87.402,18.372,11.719
-0.555,-0.004,1.019,82.825,25.146,10.071
-0.586,-0.099,1.078,72.388,25.940,8.301
-0.600,-0.146,1.076,61.646,28.198,9.338
-0.574,-0.105,1.016,51.941,30.579,10.620
-0.524,-0.041,0.905,40.039,31.433,11.169
-0.469,0.004,0.831,30.884,29.907,8.606
-0.439,-0.054,0.818,17.212,26.978,4.700
-0.421,-0.133,0.817,3.601,23.499,2.502
-0.413,-0.185,0.802,-10.559,20.142,1.221
-0.425,-0.185,0.788,-22.400,16.113,1.526
-0.449,-0.173,0.772,-27.344,11.353,2.197
-0.472,-0.141,0.759,-25.635,6.226,2.808
-0.488,-0.092,0.751,-18.677,1.038,3.235
-0.510,-0.060,0.772,-8.057,-4.333,3.601
-0.544,0.003,0.810,5.554,-8.789,4.333
-0.543,-0.080,0.772,14.526,-11.719,3.601
-0.529,-0.090,0.849,23.987,-13.916,5.920
-0.512,-0.156,0.882,26.672,-16.418,8.301
-0.505,-0.211,0.936,15.625,-13.916,11.108
-0.503,-0.284,0.961,-5.798,-8.789,14.282
-0.569,-0.335,1.038,-40.039,-2.563,17.578
-0.705,-0.361,1.227,-84.656,8.240,21.362
-0.802,-0.234,1.326,-128.662,23.987,21.423
-0.830,-0.013,1.345,-168.213,38.696,12.024
-0.899,-0.008,1.453,-202.209,51.331,-0.183
-0.860,-0.015,1.504,-215.881,59.448,-6.653
-0.703,0.033,1.387,-218.628,57.861,-14.648
-0.583,-0.013,1.353,-216.187,57.861,-21.240
-0.502,-0.116,1.225,-199.524,62.134,-21.362
-0.353,-0.015,1.171,-172.852,57.495,-16.602
-0.172,0.226,0.981,-146.790,46.936,-8.301
0.000,0.095,0.689,-128.906,48.523,-13.123
0.063,-0.540,0.240,-150.818,38.940,-9.094
0.011,-0.838,-0.219,-181.396,20.081,11.536
-0.081,-0.355,-0.240,-217.163,5.493,33.813
-0.190,0.404,-0.151,-217.957,1.892,39.001
-0.307,0.700,0.019,-186.401,-10.620,27.100
-0.411,0.654,0.113,-148.437,-23.254,23.560
-0.477,0.446,0.224,-124.878,-30.518,31.799
-0.539,0.227,0.384,-106.445,-33.691,40.222
-0.557,0.217,0.536,-87.769,-38.513,48.340
-0.646,0.101,0.605,-72.571,-41.931,51.025
-0.685,0.050,0.629,-70.007,-41.687,54.077
-0.719,0.060,0.637,-76.599,-37.109,58.533
-0.729,0.185,0.657,-86.426,-28.015,57.068
-0.724,0.301,0.675,-91.370,-17.212,52.917
-0.712,0.495,0.680,-90.515,-8.179,47.974
-0.678,0.772,0.710,-85.022,0.610,40.955
-0.627,1.088,0.705,-69.153,8.545,29.785
-0.565,1.241,0.657,-41.809,13.245,18.982
-0.522,1.220,0.626,-13.611,12.695,13.062
-0.512,1.163,0.613,13.977,8.362,9.827
-0.522,1.084,0.613,35.522,2.686,7.629

-0.368,-0.091,1.123,20.264,41.321,6.836
-0.328,0.010,1.015,5.676,43.152,10.498
-0.288,0.039,0.905,-6.104,41.199,10.376
-0.254,0.020,0.826,-13.550,36.194,8.423
-0.243,-0.011,0.793,-16.602,29.236,6.592
-0.255,-0.038,0.781,-15.198,21.240,5.127
-0.280,-0.068,0.836,-11.902,12.573,3.479
-0.287,-0.101,0.867,-10.925,4.395,2.625
-0.297,-0.171,0.890,-12.512,-2.563,2.869
-0.348,-0.265,0.921,-15.930,-7.629,3.906
-0.419,-0.314,1.025,-17.395,-12.146,6.287
-0.431,-0.440,1.019,-28.137,-13.855,8.545
-0.513,-0.389,1.183,-37.659,-13.916,14.893
-0.537,-0.234,1.262,-54.504,-10.803,18.677
-0.541,-0.146,1.339,-80.200,-5.981,17.151
-0.542,-0.036,1.354,-109.436,-2.319,13.611
-0.525,0.019,1.318,-129.883,-1.160,10.620
-0.540,0.067,1.301,-137.695,-3.540,5.798
-0.531,0.232,1.292,-131.592,-5.920,1.404
-0.379,0.506,1.234,-116.333,-2.625,-4.639
-0.181,0.724,1.117,-101.929,3.540,-14.038
-0.078,0.758,1.099,-95.093,6.836,-20.874
-0.056,0.558,1.165,-95.093,6.042,-21.301
-0.108,0.005,1.114,-121.277,5.310,-17.090
-0.205,-0.463,1.011,-145.996,6.348,-3.357
-0.230,-0.677,0.885,-160.095,9.338,13.367
-0.161,-0.522,0.581,-158.630,15.198,26.428
-0.152,-0.353,0.408,-180.664,19.470,28.381
-0.194,-0.281,0.188,-178.894,24.658,28.320
-0.220,-0.032,0.089,-157.471,20.569,32.715
-0.324,0.157,0.073,-143.005,8.118,37.048
-0.437,0.320,0.164,-122.864,-3.662,44.373
-0.515,0.435,0.286,-106.873,-13.123,49.866
-0.574,0.555,0.373,-96.069,-19.836,51.636
-0.636,0.659,0.412,-92.407,-24.353,51.758
-0.692,0.767,0.417,-93.140,-25.146,50.659
-0.716,0.861,0.435,-94.421,-22.217,46.814
-0.698,0.971,0.454,-93.262,-16.174,39.185
-0.651,1.125,0.470,-84.961,-7.019,29.236
-0.577,1.346,0.488,-64.209,1.221,16.907
-0.498,1.419,0.496,-31.921,7.385,2.747
-0.450,1.328,0.538,-2.747,8.728,-8.057
-0.416,1.163,0.550,20.020,5.981,-14.465
-0.385,0.950,0.557,30.457,-1.221,-17.273
-0.407,0.847,0.573,40.894,-8.911,-16.174
-0.402,0.838,0.594,53.955,-12.207,-15.625
-0.393,0.833,0.584,59.814,-13.489,-19.470
-0.393,0.853,0.589,70.068,-13.367,-26.672
-0.384,0.912,0.582,95.093,-10.437,-36.377
-0.418,0.939,0.567,119.507,-6.836,-48.462
-0.441,1.144,0.577,149.292,-6.592,-56.702
-0.422,1.244,0.521,193.420,-5.981,-62.866
-0.410,1.028,0.457,219.360,-10.376,-66.772
-0.387,0.565,0.364,223.938,-20.081,-62.744
-0.392,0.236,0.487,231.934,-41.016,-52.307
-0.327,-0.125,0.650,258.301,-55.115,-36.011
-0.003,-0.515,0.833,281.189,-58.899,-12.268
-0.212,-0.779,0.826,297.852,-47.913,33.936
-0.756,-0.789,0.680,267.395,-45.349,62.378
-0.981,-0.674,0.657,205.444,-40.894,41.077
-0.564,-0.448,0.827,140.198,-19.836,5.798
-0.267,0.005,0.892,96.069,12.329,-1.526
-0.278,0.363,0.848,63.599,36.804,-1.404
-0.390,0.323,0.881,38.513,46.448,-6.958
-0.389,0.280,0.930,37.781,48.157,-14.404
-0.294,0.204,1.001,42.847,43.945,-20.630
-0.290,0.128,0.994,43.091,36.255,-21.179
-0.284,0.009,1.145,49.255,25.208,-17.700
-0.264,-0.151,1.135,59.204,20.386,-11.963
-0.242,-0.316,1.132,59.937,17.395,-6.226
-0.227,-0.487,0.979,44.189,17.822,-1.648
-0.251,-0.605,0.925,15.320,17.151,4.639
-0.302,-0.607,0.881,-20.264,18.738,10.498
-0.330,-0.514,0.813,-57.373,26.123,12.695
-0.356,-0.392,0.746,-88.989,32.227,15.015
-0.355,-0.187,0.676,-107.239,32.227,15.625
-0.315,0.005,0.642,-107.971,25.330,12.390
-0.270,0.086,0.700,-95.032,13.000,7.202
-0.247,0.126,0.812,-71.594,-0.366,2.625
-0.260,0.100,0.945,-45.837,-11.658,0.366
-0.327,-0.034,1.063,-26.733,-20.325,1.526
-0.420,-0.199,1.151,-17.395,-25.696,5.676
-0.482,-0.333,1.206,-20.996,-26.428,11.108
-0.502,-0.288,1.276,-40.344,-21.423,15.686
-0.503,-0.246,1.296,-76.294,-13.306,14.221
-0.481,-0.287,1.230,-108.459,-7.507,11.536
-0.472,-0.243,1.104,-120.483,-7.751,10.925
-0.497,-0.010,1.053,-114.868,-10.681,11.047
-0.490,0.256,1.048,-105.957,-12.207,7.996
-0.441,0.475,1.035,-96.130,-14.282,0.854
-0.371,0.682,1.067,-76.599,-15.015,-6.531
-0.265,0.896,1.105,-43.701,-12.390,-13.184
-0.213,0.728,1.125,-20.142,-15.381,-20.630
-0.167,0.496,1.100,-13.916,-23.315,-15.930
-0.158,0.367,1.358,-18.250,-30.090,-5.554
-0.184,0.375,1.506,-34.485,-26.245,0.061
-0.253,0.286,1.494,-59.082,-12.573,3.601
-0.277,0.185,1.469,-89.050,6.836,7.690
-0.198,0.069,1.140,-105.164,28.625,7.874
-0.099,-0.159,0.769,-130.432,39.429,4.761
-0.004,-0.324,0.295,-154.175,40.833,8.606
-0.030,-0.474,-0.041,-173.767,30.151,17.273
-0.130,-0.181,-0.125,-183.167,9.521,32.776
-0.264,0.140,0.026,-156.067,-5.554,40.222
-0.425,0.292,0.234,-124.695,-16.052,41.077
-0.505,0.337,0.334,-97.900,-24.841,46.143
-0.548,0.302,0.371,-86.853,-32.349,52.246
-0.615,0.341,0.388,-83.496,-39.001,58.105
-0.652,0.444,0.411,-79.956,-47.791,62.012
-0.662,0.561,0.437,-72.388,-53.711,62.500
-0.661,0.729,0.467,-64.270,-52.856,59.265
-0.665,0.879,0.513,-54.382,-45.410,54.565
-0.662,0.983,0.584,-44.006,-34.363,46.997
-0.650,1.017,0.658,-33.813,-21.606,37.170
-0.625,1.032,0.701,-21.179,-10.925,26.062
-0.594,1.021,0.711,-5.127,-4.578,14.893
-0.577,0.983,0.701,7.629,-1.831,5.920
-0.562,0.960,0.666,17.334,-1.343,0.244
-0.543,0.945,0.616,29.053,-1.709,-5.676

-0.515,0.435,0.286,-106.873,-13.123,49.866
-0.574,0.555,0.373,-96.069,-19.836,51.636
-0.636,0.659,0.412,-92.407,-24.353,51.758
-0.692,0.767,0.417,-93.140,-25.146,50.659
-0.716,0.861,0.435,-94.421,-22.217,46.814
-0.698,0.971,0.454,-93.262,-16.174,39.185
-0.651,1.125,0.470,-84.961,-7.019,29.236
-0.577,1.346,0.488,-64.209,1.221,16.907
-0.618,-0.578,0.822,144.836,-33.752,33.630
-0.753,-0.536,0.846,120.911,-28.015,35.217
-0.738,-0.325,0.877,90.942,-20.325,25.757
-0.622,-0.006,0.997,65.674,-13.489,12.939
-0.526,0.190,1.001,52.124,-3.723,6.836
-0.519,0.222,1.055,40.588,3.357,4.761
-0.543,0.276,1.093,41.443,7.507,2.930
-0.574,0.197,1.100,45.410,8.667,0.000
-0.573,0.072,1.100,49.011,11.047,0.061
-0.562,-0.038,1.088,43.457,14.648,2.380
-0.569,-0.077,1.089,26.550,16.663,4.578
-0.553,-0.003,1.020,16.174,21.057,3.723
-0.523,0.071,0.974,8.362,25.024,0.061
-0.500,0.103,0.977,3.601,26.184,-4.150
-0.477,0.111,0.950,5.066,25.818,-7.812
-0.442,0.065,0.927,9.460,23.682,-10.315
-0.420,-0.011,0.870,15.503,17.395,-9.521
-0.426,-0.111,0.814,21.240,8.911,-5.859
-0.467,-0.180,0.760,23.865,0.977,-0.916
-0.526,-0.276,0.683,18.738,-5.127,3.113
-0.549,-0.224,0.635,18.433,-8.972,4.761
-0.557,-0.215,0.670,18.555,-13.184,5.127
-0.556,-0.193,0.713,13.245,-12.939,5.371
-0.550,-0.163,0.751,5.493,-11.780,5.920
-0.542,-0.135,0.783,-1.770,-11.353,8.057
-0.533,-0.081,0.852,-6.653,-11.841,10.254
-0.524,-0.075,0.884,-12.695,-11.414,10.986
-0.510,-0.118,0.901,-23.682,-9.033,11.841
-0.526,-0.116,0.933,-36.926,-6.897,14.160
-0.579,-0.114,1.061,-60.852,-3.662,15.808
-0.624,-0.199,1.265,-91.064,0.183,17.273
-0.734,-0.328,1.339,-124.268,6.958,21.606
-0.825,-0.319,1.215,-151.917,15.686,30.090
-0.892,-0.024,1.137,-165.833,14.587,32.837
-0.780,0.420,1.287,-156.982,11.902,16.724
-0.555,0.484,1.162,-139.709,21.667,-13.000
-0.426,0.609,1.034,-111.023,31.860,-24.475
-0.290,0.993,1.098,-70.496,26.062,-25.269
-0.186,0.756,1.008,-47.363,19.470,-36.011
-0.177,0.242,1.229,-72.327,8.301,-35.767
-0.285,-0.341,1.094,-106.873,4.944,-23.804
-0.367,-0.575,0.973,-133.118,10.010,-3.906
-0.311,-0.770,0.307,-139.099,21.301,9.766
-0.248,-0.864,-0.096,-173.828,18.982,16.541
-0.261,-0.633,-0.167,-206.909,12.695,26.001
-0.370,-0.221,-0.108,-193.970,2.625,36.072
-0.530,0.009,0.038,-164.062,-10.620,38.818
-0.615,0.210,0.200,-136.902,-19.226,39.551
-0.629,0.344,0.356,-120.239,-20.691,39.734
-0.622,0.504,0.496,-105.957,-20.203,40.894
-0.658,0.599,0.613,-94.360,-22.217,41.687
-0.710,0.676,0.670,-84.656,-25.024,43.518
-0.761,0.755,0.682,-76.965,-25.940,42.908
-0.781,0.820,0.658,-72.937,-25.879,38.574
-0.761,0.868,0.644,-62.744,-19.592,30.701
-0.705,0.886,0.634,-46.082,-11.292,20.447
-0.643,0.874,0.621,-27.222,-5.371,10.925
-0.593,0.844,0.610,-8.606,-4.211,2.808
-0.569,0.812,0.606,7.080,-5.676,-2.197
-0.565,0.837,0.593,23.743,-10.071,-5.005
-0.578,0.800,0.607,41.626,-15.198,-9.338
-0.587,0.753,0.626,54.443,-17.456,-14.404
-0.574,0.741,0.615,67.200,-17.029,-17.395
-0.558,0.732,0.625,82.703,-16.052,-20.752
-0.544,0.731,0.609,99.304,-13.123,-25.635
-0.544,0.759,0.596,112.915,-10.925,-32.166
-0.532,0.713,0.553,132.080,-9.888,-39.063
-0.517,0.595,0.524,143.555,-11.963,-43.884
-0.511,0.475,0.545,138.855,-16.907,-45.776
-0.511,0.354,0.542,134.277,-24.536,-44.556
-0.514,0.247,0.569,144.226,-29.602,-37.964
-0.560,0.117,0.680,147.034,-31.433,-32.471
-0.606,0.074,0.619,154.419,-28.198,-26.306
-0.601,0.012,0.755,153.992,-26.978,-23.560
-0.580,-0.042,0.808,158.813,-22.095,-19.226
-0.558,-0.097,0.796,165.283,-13.550,-11.414
-0.391,-0.281,0.819,158.752,-9.155,-5.676
-0.410,-0.449,0.933,152.649,-3.235,12.573
-0.654,-0.336,0.661,143.066,1.404,28.992
-0.699,-0.308,0.696,105.469,-5.310,19.104
-0.594,-0.257,0.687,76.721,-7.263,8.423
-0.498,-0.109,0.715,57.861,-5.920,5.066
-0.453,0.048,0.776,49.500,-5.066,1.831
-0.468,0.149,0.865,49.927,-2.258,-0.427
-0.514,0.188,1.022,53.345,-0.854,-2.380
-0.539,0.172,1.085,61.035,0.916,-3.601
-0.530,0.077,1.142,67.566,3.418,-2.136
-0.515,0.019,1.071,69.763,10.193,0.427
-0.494,0.014,1.035,60.364,13.672,3.479
-0.483,-0.010,0.960,46.448,16.113,5.249
-0.476,-0.026,0.880,31.128,17.883,4.272
-0.463,-0.003,0.854,18.372,19.409,2.258
-0.448,0.027,0.868,4.700,21.057,-1.343
-0.431,0.024,0.832,-6.958,22.095,-5.859
-0.438,0.013,0.802,-16.357,20.325,-10.010
-0.463,0.010,0.803,-17.883,15.564,-11.963
-0.472,-0.031,0.791,-14.221,10.620,-12.146
-0.495,-0.096,0.790,-7.080,4.395,-10.437
-0.529,-0.147,0.768,-0.549,-0.488,-7.507
-0.561,-0.193,0.764,2.014,-3.723,-4.761
-0.576,-0.113,0.759,4.639,-5.310,-1.709
-0.584,-0.131,0.755,7.507,-6.836,0.427
-0.600,-0.148,0.741,5.066,-7.019,1.709
-0.604,-0.117,0.747,2.747,-7.629,2.686
-0.576,0.000,0.756,3.296,-8.545,2.197
-0.552,0.104,0.768,5.066,-10.376,0.549
-0.556,0.102,0.815,10.803,-13.123,-1.404
-0.559,0.080,0.831,24.475,-16.174,-1.770
-0.553,0.089,0.864,44.739,-19.531,-1.648
-0.533,0.070,0.857,68.604,-21.912,-0.244
-0.524,-0.010,0.855,86.731,-23.254,2.075

-0.526,0.190,1.001,52.124,-3.723,6.836
-0.519,0.222,1.055,40.588,3.357,4.761
-0.543,0.276,1.093,41.443,7.507,2.930
-0.574,0.197,1.100,45.410,8.667,0.000
-0.573,0.072,1.100,49.011,11.047,0.061
-0.562,-0.038,1.088,43.457,14.648,2.380
-0.569,-0.077,1.089,26.550,16.663,4.578
-0.553,-0.003,1.020,16.174,21.057,3.723
-0.523,0.071,0.974,8.362,25.024,0.061
-0.500,0.103,0.977,3.601,26.184,-4.150
-0.477,0.111,0.950,5.066,25.818,-7.812
-0.442,0.065,0.927,9.460,23.682,-10.315
-0.420,-0.011,0.870,15.503,17.395,-9.521
-0.426,-0.111,0.814,21.240,8.911,-5.859
-0.467,-0.180,0.760,23.865,0.977,-0.916
-0.526,-0.276,0.683,18.738,-5.127,3.113
-0.549,-0.224,0.635,18.433,-8.972,4.761
-0.557,-0.215,0.670,18.555,-13.184,5.127
-0.556,-0.193,0.713,13.245,-12.939,5.371
-0.550,-0.163,0.751,5.493,-11.780,5.920
-0.542,-0.135,0.783,-1.770,-11.353,8.057
-0.533,-0.081,0.852,-6.653,-11.841,10.254
-0.524,-0.075,0.884,-12.695,-11.414,10.986
-0.510,-0.118,0.901,-23.682,-9.033,11.841
-0.526,-0.116,0.933,-36.926,-6.897,14.160
-0.579,-0.114,1.061,-60.852,-3.662,15.808
-0.624,-0.199,1.265,-91.064,0.183,17.273
-0.734,-0.328,1.339,-124.268,6.958,21.606
-0.060,-0.580,-0.184,-211.365,14.526,22.827
-0.152,-0.195,-0.103,-195.007,3.967,32.776
-0.342,0.112,0.080,-153.259,-8.606,37.903
-0.531,0.129,0.311,-118.469,-16.235,43.213
-0.584,0.146,0.515,-100.769,-18.250,53.528
-0.577,0.237,0.654,-89.417,-16.357,63.538
-0.613,0.303,0.675,-88.440,-18.005,67.200
-0.668,0.459,0.589,-91.003,-27.405,64.392
-0.718,0.605,0.514,-89.905,-33.020,62.561
-0.811,0.712,0.482,-90.149,-33.752,57.251
-0.896,0.879,0.449,-90.820,-26.978,50.842
-0.873,1.057,0.426,-82.031,-17.151,35.400
-0.788,1.214,0.454,-55.054,-5.798,16.479
-0.693,1.256,0.457,-20.264,2.563,-0.488
-0.609,1.205,0.458,9.766,3.052,-11.414
-0.563,1.106,0.452,40.710,-1.587,-15.320
-0.525,0.879,0.446,62.256,-10.986,-17.883
-0.516,0.707,0.463,79.529,-20.813,-17.944
-0.506,0.583,0.476,85.876,-28.564,-18.127
-0.508,0.530,0.490,97.351,-31.433,-18.738
-0.522,0.527,0.504,105.652,-31.555,-21.362
-0.531,0.544,0.521,111.816,-30.334,-25.330
-0.517,0.542,0.540,118.408,-27.588,-29.175
-0.499,0.536,0.560,123.169,-23.437,-31.494
-0.494,0.528,0.554,127.808,-22.156,-34.607
-0.484,0.491,0.563,134.094,-25.513,-35.400
-0.480,0.462,0.586,130.249,-29.236,-34.058
-0.483,0.417,0.595,125.610,-33.325,-33.142
-0.492,0.348,0.638,130.615,-35.645,-31.372
-0.515,0.299,0.716,136.169,-37.109,-28.870
-0.529,0.230,0.697,150.208,-35.950,-26.184
-0.543,0.136,0.706,159.668,-34.424,-22.949
-0.558,0.020,0.749,160.034,-35.217,-19.348
-0.574,-0.060,0.754,159.790,-33.447,-13.489
-0.564,-0.089,0.804,159.668,-30.457,-7.141
-0.534,-0.041,0.759,162.720,-26.672,-3.113
-0.506,-0.095,0.784,159.241,-24.414,-0.854
-0.508,-0.258,0.838,143.005,-22.644,1.648
-0.561,-0.379,0.912,123.657,-21.423,7.385
-0.584,-0.350,0.940,107.483,-18.250,12.573
-0.583,-0.246,0.876,87.097,-11.292,13.489
-0.575,-0.149,0.886,58.533,-4.578,10.986
-0.584,0.020,0.899,37.598,3.784,11.536
-0.588,0.170,0.949,30.945,9.827,10.071
-0.582,0.220,0.972,35.156,14.343,6.409
-0.555,0.184,0.980,41.992,16.113,3.540
-0.511,0.146,0.891,49.072,16.724,1.038
-0.485,0.099,0.874,51.392,11.536,0.122
-0.479,0.047,0.882,49.438,5.798,0.061
-0.484,0.018,0.861,41.687,2.869,-0.488
-0.505,0.009,0.809,33.752,1.099,-2.380
-0.533,0.012,0.808,27.710,-0.061,-3.784
-0.547,-0.006,0.778,24.109,-0.488,-4.333
-0.558,-0.100,0.770,22.278,-1.709,-4.578
-0.585,-0.201,0.750,21.545,-3.235,-3.174
-0.604,-0.294,0.722,18.799,-4.700,-0.183
-0.597,-0.249,0.735,18.799,-5.493,3.479
-0.571,-0.214,0.759,18.921,-6.714,7.446
-0.537,-0.176,0.777,10.254,-5.371,10.193
-0.522,-0.111,0.806,-2.319,-3.296,12.085
-0.532,-0.065,0.900,-18.127,0.488,12.634
-0.567,-0.079,1.015,-39.734,5.737,11.719
-0.610,-0.104,1.168,-68.909,12.024,10.376
-0.683,-0.247,1.329,-107.483,18.005,7.874
-0.800,-0.447,1.464,-148.865,24.048,8.789
-0.887,-0.443,1.400,-178.284,29.053,15.808
-0.954,-0.180,1.278,-187.683,29.358,21.790
-0.913,0.295,1.345,-180.176,29.541,14.221
-0.701,0.684,1.415,-162.048,36.987,-10.803
-0.461,0.888,1.225,-131.775,48.889,-31.799
-0.330,0.979,1.038,-98.145,48.401,-39.673
-0.270,0.754,0.957,-92.407,37.476,-44.495
-0.305,-0.094,1.039,-144.531,27.527,-48.889
-0.297,-0.405,1.027,-194.458,27.344,-32.349
-0.149,-0.807,0.349,-200.867,41.992,-5.859
-0.084,-0.889,-0.097,-220.642,39.978,12.634
-0.160,-0.775,-0.044,-244.873,30.945,25.818
-0.370,-0.379,0.020,-219.849,23.682,38.696
-0.542,0.001,0.137,-170.471,13.916,40.955
-0.563,0.325,0.281,-134.766,7.446,36.499
-0.560,0.422,0.410,-105.652,5.554,34.912
-0.563,0.380,0.423,-85.754,-3.113,33.875
-0.601,0.324,0.437,-76.599,-14.526,36.743
-0.659,0.395,0.458,-76.477,-23.254,43.945
-0.702,0.611,0.456,-80.261,-30.212,48.706
-0.738,0.878,0.450,-83.069,-28.931,46.082
-0.748,1.048,0.470,-76.050,-20.813,35.889
-0.700,1.102,0.501,-57.800,-8.789,22.095
-0.623,1.148,0.536,-31.006,1.038,7.202
-0.560,1.156,0.530,-1.038,3.357,-5.371
-0.507,1.115,0.511,25.146,-0.610,-13.306

-0.668,0.459,0.589,-91.003,-27.405,64.392
-0.718,0.605,0.514,-89.905,-33.020,62.561
-0.811,0.712,0.482,-90.149,-33.752,57.251
-0.896,0.879,0.449,-90.820,-26.978,50.842
-0.873,1.057,0.426,-82.031,-17.151,35.400
-0.597,-0.042,0.872,75.928,-17.090,17.944
-0.562,0.130,0.869,62.927,-11.902,13.489
-0.575,0.186,0.916,60.425,-9.827,10.620
-0.583,0.162,0.934,72.937,-10.925,10.071
-0.599,0.083,0.883,90.881,-14.526,11.414
-0.596,-0.131,0.915,102.966,-21.179,14.160
-0.618,-0.105,1.007,113.098,-23.621,19.104
-0.617,-0.119,0.959,115.540,-16.479,20.752
-0.625,-0.115,0.963,104.065,-12.390,20.874
-0.615,-0.079,0.946,86.487,-6.409,18.066
-0.586,-0.074,0.840,62.561,0.549,13.184
-0.570,-0.025,0.776,41.382,3.540,9.155
-0.564,0.007,0.759,25.940,4.700,5.676
-0.555,-0.034,0.745,10.986,5.554,2.747
-0.554,0.003,0.752,1.526,5.188,0.732
-0.576,0.008,0.799,3.540,2.075,0.183
-0.604,0.019,0.816,1.221,0.183,-0.977
-0.606,0.044,0.797,-0.183,-1.892,-2.319
-0.595,0.030,0.794,0.366,-3.601,-3.967
-0.585,-0.019,0.780,-2.441,-4.333,-4.639
-0.577,-0.061,0.786,-9.338,-3.967,-3.906
-0.581,-0.108,0.806,-19.104,-2.441,-2.930
-0.594,-0.144,0.810,-31.311,-0.122,-2.441
-0.591,-0.151,0.824,-43.884,1.648,-1.587
-0.599,-0.167,0.816,-58.716,3.357,-1.221
-0.614,-0.171,0.770,-76.477,5.432,-1.038
-0.634,-0.191,0.770,-92.102,6.836,0.549
-0.648,-0.184,0.866,-104.980,8.484,2.686
-0.681,-0.201,1.001,-120.911,12.695,3.052
-0.679,-0.166,1.081,-138.367,18.921,2.930
-0.651,-0.146,1.124,-152.039,21.545,2.869
-0.677,-0.192,1.166,-160.156,18.921,4.456
-0.736,-0.226,1.236,-163.330,15.381,8.850
-0.760,-0.066,1.364,-152.161,14.038,11.841
-0.771,0.101,1.507,-122.070,14.709,7.263
-0.674,0.201,1.391,-89.233,17.944,0.122
-0.513,0.423,1.204,-76.172,22.949,-8.362
-0.397,0.498,1.191,-98.083,19.287,-22.278
-0.352,0.116,0.842,-132.751,16.296,-35.767
-0.219,-0.126,0.779,-173.157,16.846,-30.701
-0.034,-0.219,0.190,-187.500,23.499,-9.338
-0.017,-0.225,-0.194,-207.458,23.621,-2.808
-0.140,-0.263,-0.252,-181.885,10.437,7.019
-0.428,-0.165,0.019,-144.470,-3.174,21.729
-0.681,0.120,0.325,-108.215,-10.864,31.189
-0.736,0.248,0.509,-77.209,-10.010,30.090
-0.721,0.144,0.599,-54.871,-6.104,34.058
-0.694,-0.016,0.666,-46.204,-4.395,44.495
-0.676,-0.101,0.605,-50.903,-8.911,54.504
-0.720,0.046,0.519,-63.049,-16.846,59.875
-0.753,0.345,0.495,-74.951,-20.630,60.547
-0.812,0.661,0.531,-85.571,-16.541,55.664
-0.825,0.763,0.604,-91.614,-7.141,44.128
-0.780,0.908,0.679,-90.698,3.906,27.893
-0.687,1.010,0.724,-80.444,15.442,15.076
-0.605,1.077,0.708,-59.570,22.095,4.700
-0.556,1.093,0.660,-36.072,20.813,-1.038
-0.511,1.047,0.622,-15.991,13.855,-4.211
-0.483,0.967,0.576,4.517,5.005,-7.324
-0.483,0.864,0.514,24.963,-2.930,-13.550
-0.490,0.783,0.453,44.800,-9.521,-20.630
-0.499,0.726,0.403,63.721,-14.771,-28.015
-0.531,0.697,0.379,85.266,-18.982,-36.072
-0.556,0.722,0.419,106.995,-23.926,-43.274
-0.582,0.744,0.451,130.981,-25.574,-49.194
-0.607,0.711,0.466,155.701,-26.611,-53.528
-0.575,0.712,0.360,170.227,-30.151,-56.580
-0.566,0.624,0.481,163.147,-36.438,-59.753
-0.553,0.459,0.496,182.251,-42.542,-58.838
-0.582,0.269,0.511,204.041,-48.523,-54.749
-0.564,0.024,0.488,225.342,-52.368,-49.561
-0.591,-0.153,0.534,235.962,-55.847,-37.170
-0.608,-0.354,0.628,241.028,-57.556,-21.790
-0.648,-0.534,0.726,234.070,-55.115,-7.446
-0.673,-0.626,0.755,221.985,-45.532,4.333
-0.640,-0.620,0.731,199.219,-32.104,12.512
-0.546,-0.693,0.898,163.635,-18.127,19.287
-0.452,-0.866,0.920,128.784,2.319,29.968
-0.675,-0.645,0.680,89.233,18.188,42.358
-0.781,-0.365,0.677,38.025,14.771,31.067
-0.631,-0.142,0.671,9.521,11.292,17.395
-0.576,0.102,0.839,10.254,12.756,14.771
-0.498,0.250,0.849,36.865,20.569,14.221
-0.507,0.265,0.912,56.763,21.423,12.390
-0.543,0.079,0.964,65.735,14.221,13.306
-0.567,-0.151,1.006,55.725,11.658,17.212
-0.579,-0.215,1.025,38.635,13.000,23.499
-0.574,-0.114,0.941,21.667,16.541,25.818
-0.556,-0.033,0.894,5.127,18.433,23.865
-0.558,0.119,0.877,-5.920,21.667,20.264
-0.518,0.029,0.791,-13.550,25.146,13.550
-0.509,-0.016,0.775,-9.094,25.146,10.315
-0.501,-0.047,0.743,-1.892,21.179,10.193
-0.508,-0.063,0.769,2.258,17.090,12.756
-0.524,-0.069,0.841,7.019,13.428,16.418
-0.536,-0.079,0.877,10.742,12.268,19.165
-0.521,-0.051,0.866,9.766,13.428,21.667
-0.493,-0.004,0.828,3.845,15.625,23.376
-0.477,0.006,0.818,-2.869,16.113,22.217
-0.480,-0.009,0.836,-9.705,15.015,19.470
-0.487,-0.013,0.857,-17.029,13.916,16.235
-0.503,-0.019,0.890,-26.001,13.611,12.268
-0.514,-0.032,0.890,-38.391,13.489,8.423
-0.497,-0.022,0.896,-50.659,13.123,4.211
-0.473,-0.034,0.962,-63.477,12.390,-0.549
-0.496,-0.078,0.957,-79.956,14.099,-4.395
-0.521,-0.081,0.916,-95.947,16.479,-5.371
-0.560,-0.074,0.997,-107.849,15.137,-4.944
-0.604,-0.132,1.088,-118.042,12.573,-4.883
-0.600,-0.232,1.227,-128.296,12.207,-2.930
-0.610,-0.260,1.217,-132.080,13.000,-0.061
-0.648,-0.242,1.288,-127.686,12.146,4.395
-0.703,-0.159,1.259,-138.550,6.836,6.287
-0.732,0.158,1.423,-129.456,-0.122,8.545

-0.811,0.712,0.482,-90.149,-33.752,57.251
-0.896,0.879,0.449,-90.820,-26.978,50.842
-0.873,1.057,0.426,-82.031,-17.151,35.400
-0.597,-0.042,0.872,75.928,-17.090,17.944
-0.562,0.130,0.869,62.927,-11.902,13.489
-0.575,0.186,0.916,60.425,-9.827,10.620
-0.583,0.162,0.934,72.937,-10.925,10.071
-0.599,0.083,0.883,90.881,-14.526,11.414
-0.596,-0.131,0.915,102.966,-21.179,14.160
-0.618,-0.105,1.007,113.098,-23.621,19.104
-0.617,-0.119,0.959,115.540,-16.479,20.752
-0.625,-0.115,0.963,104.065,-12.390,20.874
-0.615,-0.079,0.946,86.487,-6.409,18.066
-0.586,-0.074,0.840,62.561,0.549,13.184
-0.570,-0.025,0.776,41.382,3.540,9.155
-0.564,0.007,0.759,25.940,4.700,5.676
-0.555,-0.034,0.745,10.986,5.554,2.747
-0.554,0.003,0.752,1.526,5.188,0.732
-0.576,0.008,0.799,3.540,2.075,0.183
-0.604,0.019,0.816,1.221,0.183,-0.977
-0.606,0.044,0.797,-0.183,-1.892,-2.319
-0.595,0.030,0.794,0.366,-3.601,-3.967
-0.585,-0.019,0.780,-2.441,-4.333,-4.639
-0.577,-0.061,0.786,-9.338,-3.967,-3.906
-0.581,-0.108,0.806,-19.104,-2.441,-2.930
-0.594,-0.144,0.810,-31.311,-0.122,-2.441
-0.591,-0.151,0.824,-43.884,1.648,-1.587
-0.599,-0.167,0.816,-58.716,3.357,-1.221
-0.614,-0.171,0.770,-76.477,5.432,-1.038
-0.634,-0.191,0.770,-92.102,6.836,0.549
-0.648,-0.184,0.866,-104.980,8.484,2.686
-0.681,-0.201,1.001,-120.911,12.695,3.052
-0.679,-0.166,1.081,-138.367,18.921,2.930
-0.651,-0.146,1.124,-152.039,21.545,2.869
-0.677,-0.192,1.166,-160.156,18.921,4.456
-0.736,-0.226,1.236,-163.330,15.381,8.850
-0.760,-0.066,1.364,-152.161,14.038,11.841
-0.771,0.101,1.507,-122.070,14.709,7.263
-0.841,0.855,0.531,-105.652,10.559,24.292
-0.773,0.900,0.595,-87.036,10.681,18.372
-0.683,0.911,0.650,-70.007,16.235,17.273
-0.622,0.949,0.679,-55.786,19.653,14.771
-0.587,1.001,0.661,-41.260,18.005,10.071
-0.575,1.034,0.617,-21.057,16.296,1.526
-0.583,1.112,0.564,7.019,12.268,-9.827
-0.589,1.089,0.500,34.241,5.432,-21.545
-0.611,1.054,0.460,60.364,-2.686,-29.968
-0.621,1.068,0.437,87.769,-8.545,-38.391
-0.609,1.143,0.450,122.192,-13.000,-47.485
-0.627,1.086,0.459,160.461,-15.930,-57.251
-0.659,0.909,0.422,198.975,-18.860,-63.416
-0.655,0.679,0.431,231.384,-23.560,-63.538
-0.676,0.509,0.401,246.399,-27.649,-60.608
-0.713,0.276,0.496,231.140,-38.879,-62.744
-0.727,0.015,0.554,227.051,-44.495,-58.044
-0.706,-0.159,0.677,219.971,-45.837,-47.180
-0.696,-0.252,0.746,226.074,-36.621,-30.884
-0.724,-0.428,0.754,219.299,-26.550,-20.264
-0.738,-0.585,0.790,191.589,-16.418,-10.986
-0.732,-0.638,0.858,161.560,-3.174,0.916
-0.712,-0.675,0.787,133.972,14.160,10.803
-0.661,-0.612,0.801,99.670,30.701,18.250
-0.628,-0.402,0.700,68.787,46.082,23.071
-0.617,0.002,0.553,50.171,50.476,23.560
-0.538,0.276,0.564,42.175,45.044,16.663
-0.465,0.322,0.691,54.810,37.537,11.169
-0.506,0.307,0.757,87.769,27.954,10.742
-0.554,0.141,0.899,109.802,15.747,11.963
-0.581,-0.046,0.973,123.962,6.104,18.982
-0.580,-0.155,1.020,126.770,7.080,26.733
-0.568,-0.189,0.955,120.728,15.442,32.593
-0.552,-0.134,0.910,102.478,22.217,35.095
-0.534,-0.031,0.828,78.369,28.809,33.264
-0.522,0.076,0.738,59.387,32.288,28.442
-0.518,0.103,0.709,48.218,31.311,24.292
-0.537,0.078,0.779,39.551,27.649,19.226
-0.472,0.029,0.658,29.175,24.048,10.498
-0.457,0.004,0.785,34.363,17.883,5.310
-0.461,-0.002,0.843,33.264,13.123,1.892
-0.476,0.001,0.887,29.297,10.437,0.854
-0.486,-0.008,0.890,21.973,9.033,-0.061
-0.476,-0.022,0.848,12.085,8.423,-0.366
-0.473,-0.072,0.801,2.625,6.836,-0.061
-0.479,-0.131,0.792,-2.136,3.906,0.793
-0.489,-0.188,0.777,-6.897,1.648,1.038
-0.499,-0.189,0.807,-13.062,-0.854,1.099
-0.502,-0.170,0.854,-19.165,-3.113,-0.610
-0.501,-0.228,0.912,-30.334,-3.357,-4.150
-0.521,-0.274,0.930,-49.011,-1.160,-5.737
-0.543,-0.317,0.996,-71.960,0.732,-4.395
-0.637,-0.523,1.109,-104.736,2.563,-0.244
-0.816,-0.631,1.300,-142.700,8.789,9.521
-1.021,-0.636,1.787,-188.049,24.475,18.799
-1.052,-0.341,1.989,-229.187,43.457,21.179
-0.953,0.138,1.725,-237.366,42.786,3.174
-0.613,0.236,1.250,-218.750,43.823,-22.339
-0.177,-0.001,0.293,-194.275,52.063,-30.884
0.025,0.113,0.293,-181.885,28.442,-27.039
0.053,-0.398,0.541,-225.159,1.160,-33.630
0.196,-0.617,-0.029,-227.417,-5.127,-6.958
0.139,-0.203,0.228,-221.375,-8.362,15.808
-0.092,0.087,0.168,-208.923,-10.803,20.386
-0.253,0.295,0.057,-189.270,-18.921,21.912
-0.404,0.330,0.139,-167.908,-36.194,31.799
-0.554,0.294,0.245,-146.667,-49.927,41.443
-0.670,0.322,0.322,-127.930,-58.228,45.959
-0.703,0.265,0.351,-112.793,-68.298,44.983
-0.781,0.157,0.393,-105.347,-75.256,51.697
-1.030,-0.012,0.234,-103.882,-76.294,62.317
-0.828,0.356,0.426,-51.453,-76.233,67.810
-1.032,0.436,0.456,-122.742,-53.467,55.847
-1.042,0.559,0.489,-119.080,-50.659,50.354
-1.073,0.751,0.496,-100.159,-35.217,44.556
-0.921,0.746,0.505,-81.055,-15.625,31.067
-0.785,0.744,0.537,-64.270,-2.075,25.574
-0.698,0.816,0.557,-52.856,3.906,22.461
-0.635,0.898,0.581,-42.542,4.150,18.188
-0.613,0.910,0.592,-29.114,2.625,13.000
-0.602,0.945,0.599,-13.794,0.366,7.507

-0.594,-0.144,0.810,-31.311,-0.122,-2.441
-0.591,-0.151,0.824,-43.884,1.648,-1.587
-0.599,-0.167,0.816,-58.716,3.357,-1.221
-0.614,-0.171,0.770,-76.477,5.432,-1.038
-0.634,-0.191,0.770,-92.102,6.836,0.549
-0.648,-0.184,0.866,-104.980,8.484,2.686
-0.681,-0.201,1.001,-120.911,12.695,3.052
-0.679,-0.166,1.081,-138.367,18.921,2.930
-0.651,-0.146,1.124,-152.039,21.545,2.869
-0.677,-0.192,1.166,-160.156,18.921,4.456
-0.736,-0.226,1.236,-163.330,15.381,8.850
-0.760,-0.066,1.364,-152.161,14.038,11.841
-0.771,0.101,1.507,-122.070,14.709,7.263
-0.841,0.855,0.531,-105.652,10.559,24.292
-0.773,0.900,0.595,-87.036,10.681,18.372
-0.420,0.199,1.348,-81.299,19.714,-7.324
-0.522,0.257,1.442,-121.216,27.344,-13.611
-0.525,0.336,1.339,-148.254,35.828,-21.179
-0.520,0.259,1.087,-161.865,38.025,-25.146
-0.506,0.209,0.869,-168.884,28.931,-20.874
-0.592,0.064,0.713,-181.519,18.860,-19.409
-0.557,0.168,0.477,-186.646,14.282,-15.015
-0.588,0.215,0.327,-193.665,12.878,-10.925
-0.659,0.226,0.278,-197.388,4.456,-13.000
-0.746,0.272,0.371,-199.158,-4.578,-12.695
-0.896,0.176,0.506,-203.186,-9.033,-12.451
-0.847,0.437,0.508,-205.383,-17.944,-0.427
-0.771,0.611,0.506,-201.721,-20.142,-2.808
-0.685,0.680,0.420,-191.833,-29.358,-4.883
-0.620,0.654,0.347,-185.181,-39.124,-4.150
-0.566,0.599,0.287,-186.462,-47.241,0.610
-0.520,0.570,0.267,-198.792,-53.833,9.094
-0.499,0.599,0.155,-214.783,-58.411,17.212
-0.478,0.686,0.004,-228.760,-63.965,23.621
-0.458,0.835,-0.143,-244.019,-71.228,27.466
-0.459,0.951,-0.248,-255.615,-78.247,26.733
-0.491,1.084,-0.264,-257.324,-88.867,27.100
-0.560,1.193,-0.191,-251.770,-102.051,31.372
-0.609,1.426,-0.021,-229.858,-106.995,37.292
-0.738,1.621,0.204,-195.923,-98.938,39.307
-0.833,1.502,0.384,-175.110,-88.440,37.476
-0.837,1.365,0.418,-150.940,-84.717,41.382
-0.792,1.186,0.335,-130.066,-84.045,49.927
-0.725,1.038,0.282,-112.610,-72.449,59.448
-0.607,0.997,0.157,-79.956,-49.561,65.735
-0.480,0.919,-0.085,-50.171,-40.222,66.589
-0.352,0.922,-0.355,-24.719,-48.157,67.444
-0.306,0.970,-0.564,9.949,-60.181,63.904
-0.336,1.198,-0.617,55.542,-69.153,55.725
-0.387,1.385,-0.607,109.192,-83.984,48.706
-0.387,1.628,-0.592,163.818,-101.257,45.593
-0.438,1.885,-0.661,236.389,-113.525,46.570
-0.442,1.867,-0.376,299.255,-128.113,44.373
-0.460,1.591,0.275,363.525,-134.216,40.894
-0.619,1.074,0.781,443.665,-118.652,42.053
-0.874,0.317,0.907,496.033,-96.741,50.537
-1.095,-0.271,0.642,493.835,-95.398,66.284
-1.239,-0.512,0.759,449.646,-119.995,75.500
-1.299,-0.732,1.367,340.820,-119.202,77.820
-1.091,-0.194,1.131,336.304,-83.557,85.754
-0.902,0.430,1.044,293.030,-49.255,75.623
-0.774,0.584,0.818,234.009,-25.818,60.608
-0.709,0.633,0.599,198.059,-13.611,56.213
-0.678,0.586,0.652,141.479,-9.094,55.786
-0.703,0.432,0.645,77.454,-2.319,54.443
-0.762,0.286,0.550,8.179,4.272,55.603
-0.834,0.228,0.500,-42.114,11.230,60.913
-0.873,0.267,0.607,-70.251,16.235,66.040
-0.918,0.400,0.588,-82.031,19.470,67.627
-0.952,0.489,0.635,-82.703,22.461,63.538
-0.958,0.500,0.631,-77.881,24.414,56.702
-0.936,0.443,0.636,-74.280,25.696,49.133
-0.904,0.376,0.624,-78.003,26.611,43.152
-0.876,0.373,0.583,-80.322,29.846,38.635
-0.842,0.423,0.516,-77.759,33.997,33.508
-0.819,0.485,0.463,-73.792,35.400,27.466
-0.787,0.571,0.370,-63.232,33.142,21.118
-0.779,0.554,0.303,-50.232,28.259,14.709
-0.760,0.563,0.224,-35.706,22.888,10.315
-0.769,0.655,0.208,-13.733,16.296,5.737
-0.785,0.798,0.266,12.634,9.094,-0.610
-0.807,0.843,0.356,36.377,2.136,-5.554
-0.854,0.751,0.488,53.528,-2.197,-6.714
-0.920,0.631,0.530,63.110,-0.183,-5.005
-0.926,0.546,0.518,67.444,6.531,-0.549
-0.919,0.410,0.511,62.256,14.893,3.906
-0.904,0.318,0.484,52.734,22.583,9.521
-0.881,0.240,0.408,40.527,32.532,15.137
-0.866,0.269,0.414,32.043,39.795,18.921
-0.803,0.430,0.314,39.246,42.603,19.104
-0.748,0.401,0.223,51.086,38.025,15.320
-0.722,0.369,0.330,59.570,28.442,14.648
-0.752,0.418,0.244,66.956,26.428,17.700
-0.788,0.531,0.379,69.641,24.841,19.287
-0.742,0.577,0.542,69.641,26.733,16.357
-0.719,0.409,0.714,63.477,37.292,14.587
-0.768,0.264,0.750,48.157,46.143,20.020
-0.800,0.196,0.806,25.696,53.223,25.757
-0.752,0.200,0.693,9.888,61.096,30.212
-0.693,0.201,0.576,0.183,62.805,31.372
-0.632,0.208,0.478,-1.526,56.824,28.259
-0.563,0.270,0.373,2.319,48.157,23.376
-0.501,0.354,0.288,11.658,37.598,16.602
-0.458,0.391,0.232,26.978,24.048,8.667
-0.440,0.344,0.240,41.809,10.010,4.395
-0.458,0.290,0.258,50.964,-0.427,5.188
-0.488,0.211,0.276,49.500,-9.644,7.690
-0.533,0.145,0.353,47.180,-17.639,12.329
-0.601,0.097,0.372,45.959,-22.522,16.785
-0.672,0.042,0.390,41.138,-26.245,20.264
-0.710,0.010,0.414,33.630,-27.771,23.499
-0.731,0.034,0.446,20.264,-27.344,25.024
-0.708,0.086,0.520,0.977,-24.231,24.536
-0.656,0.112,0.608,-19.226,-17.090,22.217
-0.657,0.109,0.670,-42.175,-8.789,18.677
-0.649,0.148,0.777,-69.580,-0.366,15.015
-0.630,0.177,0.900,-100.403,9.460,9.949
-0.645,0.100,0.959,-138.306,18.188,4.944
-0.718,-0.020,0.920,-174.438,25.635,6.287

-0.918,0.989,-0.016,134.033,6.958,-27.466
-0.907,0.888,-0.057,150.513,5.676,-30.151
-0.891,0.725,-0.057,157.898,3.174,-32.532
-0.891,0.593,-0.049,167.725,-0.061,-30.457
-0.881,0.528,-0.009,183.044,-2.136,-27.649
-0.877,0.425,0.064,191.895,-2.197,-25.085
-0.872,0.317,0.162,196.167,-0.366,-21.301
